
StartTime: 2017-08-15 14:07:20.448
Time(s)	ax(g)	ay(g)	az(g)	wx(deg/s)	wy(deg/s)	wz(deg/s)	AngleX(deg)	AngleY(deg)	AngleZ(deg)	T(°) 
790.420	0.1309	-0.0103	0.9854	0.4272	-0.2441	0.9766	1.2744	-7.6959	81.5515	53.5800 
790.420	0.1509	0.0054	1.0000	0.1831	0.4272	0.7935	1.2689	-7.6959	81.5460	53.5300 
790.436	0.1694	0.0049	1.0127	0.7324	-0.7935	-0.4272	1.2689	-7.7124	81.5350	53.3900 
790.436	0.1440	0.0015	0.9971	1.1597	-1.2817	-0.1221	1.2799	-7.7289	81.5240	53.4400 
790.467	0.1099	-0.0137	0.9990	1.5869	-1.8921	0.3662	1.2799	-7.7344	81.5240	53.5300 
790.467	0.0977	-0.0190	0.9824	1.5869	-1.2817	0.5493	1.2799	-7.7399	81.5240	53.5300 
790.498	0.1099	-0.0122	0.9692	1.4648	1.6479	0.3052	1.2854	-7.7234	81.5240	53.5300 
790.498	0.1406	-0.0005	0.9805	1.6479	4.4556	0.3662	1.2909	-7.6849	81.5186	53.5800 
790.498	0.1470	0.0098	1.0117	1.5869	4.3335	0.4883	1.3019	-7.6410	81.5186	53.5800 
790.530	0.1484	0.0049	1.0239	1.8311	2.3804	0.5493	1.3129	-7.6190	81.5131	53.3400 
790.530	0.1445	-0.0005	1.0288	2.1362	0.1221	0.1221	1.3239	-7.6135	81.5076	53.4400 
790.530	0.1396	-0.0063	1.0171	2.6245	-1.1597	-0.0610	1.3403	-7.6245	81.5021	53.3400 
790.530	0.1328	-0.0059	1.0132	2.3804	-0.9766	-0.3662	1.3568	-7.6355	81.4911	53.1500 
790.530	0.1289	-0.0049	1.0151	2.6855	-1.2207	-0.6104	1.3733	-7.6410	81.4801	53.5300 
790.545	0.1289	-0.0044	1.0122	2.6855	-1.2817	-0.6714	1.3953	-7.6520	81.4691	53.5300 
790.592	0.1255	0.0015	1.0039	2.5635	-1.4038	-0.6104	1.4117	-7.6630	81.4526	53.8700 
790.592	0.1265	0.0020	0.9937	2.4414	-1.2817	-0.4883	1.4282	-7.6740	81.4417	53.3900 
790.592	0.1289	-0.0020	0.9932	2.3193	-0.6104	-0.7935	1.4447	-7.6794	81.4307	53.3900 
790.592	0.1270	-0.0039	0.9941	2.4414	-0.0610	-1.2207	1.4557	-7.6794	81.4142	53.3900 
790.592	0.1313	-0.0024	0.9990	2.3193	0.0000	-1.3428	1.4722	-7.6794	81.3977	53.4400 
790.607	0.1299	0.0015	1.0078	2.0142	-0.1831	-1.2207	1.4832	-7.6794	81.3812	53.2500 
790.639	0.1304	0.0000	1.0103	1.8921	-0.3662	-1.1597	1.4941	-7.6794	81.3647	53.6800 
790.639	0.1309	0.0039	0.9951	1.5259	-0.2441	-1.9531	1.5051	-7.6794	81.3428	53.5300 
790.686	0.1382	0.0088	1.0142	1.7700	-0.5493	-2.8076	1.5216	-7.6794	81.3098	53.3900 
790.686	0.1465	0.0122	1.0088	1.6479	-0.4272	-1.8311	1.5326	-7.6849	81.2769	53.3900 
790.686	0.1392	0.0098	1.0176	1.7090	-1.4038	-0.6104	1.5491	-7.6959	81.2604	53.6800 
790.701	0.1250	0.0063	1.0083	1.7090	-2.5024	-0.3662	1.5601	-7.7179	81.2494	53.3900 
790.701	0.1226	0.0083	0.9941	1.6479	-2.6855	-0.9155	1.5656	-7.7399	81.2329	53.3900 
790.701	0.1279	0.0093	0.9946	1.0986	-1.8311	-1.1597	1.5765	-7.7618	81.2164	53.3400 
790.701	0.1338	0.0093	0.9873	1.0986	-0.5493	-0.8545	1.5820	-7.7673	81.2000	53.5300 
790.701	0.1406	0.0112	1.0020	1.6479	-0.2441	-1.2207	1.5930	-7.7673	81.1780	53.6800 
790.733	0.1377	0.0127	1.0049	1.7090	-0.7324	-1.1597	1.6040	-7.7728	81.1615	53.5300 
790.748	0.1372	0.0122	1.0068	1.9531	-0.8545	-1.1597	1.6205	-7.7783	81.1450	53.3400 
790.748	0.1348	0.0083	1.0020	1.2207	-0.8545	-1.2817	1.6315	-7.7893	81.1230	53.3900 
790.764	0.1343	0.0068	1.0005	1.3428	-0.7324	-1.3428	1.6425	-7.7948	81.1011	53.3900 
790.764	0.1367	0.0137	1.0059	1.4648	-0.2441	-1.4038	1.6534	-7.8003	81.0791	53.5300 
790.779	0.1343	0.0122	1.0054	1.4038	-0.3662	-1.3428	1.6589	-7.8003	81.0571	53.4400 
790.779	0.1323	0.0112	1.0054	1.3428	-0.6104	-0.7324	1.6699	-7.8058	81.0406	53.3900 
790.779	0.1304	0.0107	1.0059	0.9155	-1.0986	-0.4883	1.6699	-7.8113	81.0297	53.5800 
790.826	0.1396	0.0059	0.9990	1.2207	-1.5259	-0.6104	1.6754	-7.8278	81.0187	53.5800 
790.826	0.1367	0.0107	1.0005	1.2817	-1.6479	-0.4883	1.6809	-7.8387	81.0077	53.3400 
790.826	0.1299	0.0068	0.9961	1.2207	-1.4648	-0.3052	1.6864	-7.8552	80.9967	53.6800 
790.826	0.1279	0.0103	0.9927	0.9155	-0.9155	-0.3052	1.6919	-7.8607	80.9857	53.6800 
790.873	0.1304	0.0151	0.9873	1.0986	0.0610	-0.2441	1.6974	-7.8607	80.9747	53.5300 
790.873	0.1299	0.0083	0.9932	1.2817	0.7324	-0.1221	1.7029	-7.8552	80.9692	53.5800 
790.873	0.1318	0.0142	1.0029	0.7324	0.9155	-0.3662	1.7084	-7.8442	80.9583	53.5300 
790.904	0.1304	0.0107	0.9976	0.9155	0.9155	-0.1831	1.7084	-7.8278	80.9528	53.3900 
790.904	0.1328	0.0146	1.0000	0.3052	0.9155	0.0000	1.7084	-7.8168	80.9418	53.5800 
790.904	0.1348	0.0078	1.0098	0.4272	0.7935	-0.2441	1.7084	-7.8058	80.9308	53.6800 
790.920	0.1377	0.0103	0.9956	0.7324	0.9766	-0.6104	1.7084	-7.8003	80.9198	53.5300 
790.920	0.1401	0.0132	0.9956	0.4883	0.9155	-0.5493	1.7084	-7.7893	80.9088	53.5300 
790.920	0.1421	0.0073	0.9966	0.4272	0.8545	-0.3662	1.7029	-7.7838	80.8978	53.3400 
790.951	0.1411	0.0132	1.0015	0.4883	0.9155	-0.1221	1.7029	-7.7728	80.8868	53.6800 
790.951	0.1367	0.0107	1.0059	0.0610	0.1831	0.4883	1.6974	-7.7673	80.8813	53.5800 
790.951	0.1377	0.0137	1.0078	-0.2441	0.2441	1.0376	1.6864	-7.7673	80.8868	53.3900 
790.967	0.1357	0.0127	0.9990	-0.1831	-0.1221	0.7935	1.6754	-7.7673	80.8813	53.4400 
790.983	0.1367	0.0093	1.0039	-0.2441	0.0000	0.6104	1.6699	-7.7673	80.8813	53.5300 
790.983	0.1279	0.0078	0.9980	-0.1221	-0.0610	0.4272	1.6589	-7.7673	80.8813	53.5300 
790.983	0.1387	0.0132	1.0000	-0.4883	-0.0610	0.2441	1.6479	-7.7673	80.8704	53.5300 
791.014	0.1333	0.0176	0.9980	-0.3662	0.0000	0.6104	1.6425	-7.7673	80.8704	53.3900 
791.029	0.1392	0.0122	0.9951	-0.6104	-0.1831	0.9766	1.6315	-7.7673	80.8704	53.3400 
791.029	0.1392	0.0146	1.0005	-0.7324	0.1221	1.4648	1.6205	-7.7728	80.8704	53.3400 
791.076	0.1436	0.0127	1.0024	-0.6714	0.3662	0.7935	1.6040	-7.7728	80.8704	53.3900 
791.076	0.1489	0.0132	1.0132	-0.2441	0.4883	0.7324	1.5930	-7.7673	80.8704	53.5800 
791.076	0.1362	0.0137	1.0049	0.0000	0.1831	1.3428	1.5875	-7.7673	80.8704	53.3400 
791.076	0.1367	0.0059	0.9907	-0.2441	0.1221	1.0376	1.5765	-7.7673	80.8759	53.3900 
791.108	0.1479	0.0127	0.9897	-0.5493	0.7935	2.0142	1.5656	-7.7618	80.8813	53.6800 
791.108	0.1538	0.0220	1.0049	-0.6104	0.4272	2.8076	1.5546	-7.7618	80.8978	53.7300 
791.154	0.1323	0.0083	1.0156	-0.3052	-0.6714	2.9297	1.5436	-7.7673	80.9143	53.5300 
791.154	0.1406	0.0029	1.0000	-0.1831	-1.1597	1.0376	1.5326	-7.7728	80.9253	53.6800 
791.186	0.1743	0.0244	0.9990	-0.7935	-0.3052	-0.3662	1.5216	-7.7893	80.9143	53.5800 
791.186	0.1743	0.0181	1.0049	-0.6714	-0.6714	-0.6714	1.5161	-7.8058	80.8978	53.7700 
791.186	0.1543	0.0137	1.0020	-0.4883	-1.0376	-0.5493	1.5051	-7.8223	80.8813	53.3900 
791.186	0.1421	0.0088	1.0078	-0.1221	-1.3428	-0.2441	1.4996	-7.8387	80.8704	53.5800 
791.186	0.1343	0.0000	1.0015	-0.4272	-0.9766	1.2207	1.4886	-7.8497	80.8704	53.3900 
791.186	0.1421	0.0049	0.9839	-0.9766	0.4272	1.8311	1.4667	-7.8497	80.8868	53.5300 
791.186	0.1572	0.0103	0.9858	-0.9155	2.9297	1.0376	1.4502	-7.8333	80.8923	53.5800 
791.201	0.1807	0.0186	1.0195	-0.7935	3.2959	1.2817	1.4392	-7.8113	80.8923	53.3400 
791.201	0.1860	0.0161	1.0391	-0.8545	0.3662	1.9531	1.4227	-7.8113	80.9033	53.5300 
791.201	0.1733	0.0151	1.0317	-0.4272	-2.2583	2.2583	1.4117	-7.8387	80.9198	53.5300 
791.248	0.1641	0.0156	1.0156	-0.3052	-2.9907	2.5024	1.4008	-7.8772	80.9308	53.7700 
791.248	0.1611	0.0146	1.0093	-0.2441	-2.1973	2.4414	1.3953	-7.9047	80.9418	53.3900 
791.279	0.1577	0.0166	0.9990	0.0610	-0.9155	1.9531	1.3843	-7.9266	80.9528	53.5800 
791.279	0.1606	0.0166	0.9927	-0.2441	-0.3052	1.2207	1.3788	-7.9376	80.9583	53.5300 
791.279	0.1641	0.0259	0.9839	0.3662	-0.3662	0.4272	1.3788	-7.9541	80.9528	53.5300 
791.279	0.1655	0.0234	0.9712	0.0000	-0.1831	0.8545	1.3788	-7.9651	80.9473	53.3900 
791.279	0.1694	0.0273	0.9688	0.3662	0.0000	0.7935	1.3843	-7.9761	80.9418	53.5800 
791.279	0.1675	0.0229	0.9604	0.2441	0.2441	1.1597	1.3843	-7.9871	80.9418	53.5300 
791.279	0.1680	0.0327	0.9634	0.3662	0.7935	1.4038	1.3898	-7.9926	80.9418	53.3900 
791.311	0.1704	0.0347	0.9683	0.6714	1.0986	1.5259	1.3953	-7.9980	80.9418	53.5800 
791.311	0.1821	0.0303	0.9736	0.6714	1.5869	1.0986	1.4063	-7.9980	80.9418	53.5300 
791.326	0.1855	0.0400	0.9858	1.4648	1.8921	-0.1831	1.4227	-7.9926	80.9308	53.7700 
791.326	0.1855	0.0356	0.9917	1.8311	1.6479	-0.7324	1.4447	-7.9926	80.9033	53.5300 
791.326	0.1841	0.0327	0.9912	1.8921	1.9531	-0.7935	1.4667	-7.9926	80.8813	53.5800 
791.358	0.1753	0.0322	0.9917	1.7700	0.7324	-0.1221	1.4886	-7.9926	80.8649	53.5300 
791.358	0.1626	0.0273	0.9771	1.7700	0.1221	-0.3052	1.5051	-7.9980	80.8484	53.5300 
791.373	0.1631	0.0361	0.9668	1.5259	1.2817	-0.7935	1.5271	-7.9980	80.8209	53.5800 
791.373	0.1616	0.0386	0.9648	1.9531	3.0518	-0.2441	1.5491	-7.9816	80.7990	53.5300 
791.389	0.1626	0.0337	0.9785	1.7700	4.0283	-0.5493	1.5710	-7.9541	80.7825	53.3900 
791.420	0.1685	0.0347	0.9727	1.7090	4.7607	-1.2207	1.5930	-7.9156	80.7550	53.5300 
791.420	0.1802	0.0366	0.9805	1.9531	5.3711	-1.5259	1.6150	-7.8772	80.7275	53.5300 
791.420	0.1821	0.0376	0.9907	1.7700	5.0659	-1.1597	1.6370	-7.8387	80.7001	53.5300 
791.436	0.1816	0.0317	0.9834	2.1973	4.4556	-1.6479	1.6589	-7.8113	80.6726	53.5300 
791.436	0.1777	0.0342	0.9819	1.7090	5.0049	-1.7700	1.6864	-7.7783	80.6396	53.5800 
791.483	0.1821	0.0405	0.9854	1.8921	5.0659	-1.4648	1.7084	-7.7399	80.6067	53.5800 
791.483	0.1733	0.0347	0.9849	1.5259	5.0049	-1.2817	1.7249	-7.7014	80.5792	53.5300 
791.483	0.1704	0.0327	0.9829	1.1597	4.8828	-1.0376	1.7413	-7.6685	80.5573	53.7300 
791.514	0.1724	0.0322	0.9922	1.2207	5.0049	-0.6104	1.7523	-7.6300	80.5353	53.3400 
791.514	0.1689	0.0371	0.9873	1.0986	5.5542	-0.7935	1.7688	-7.5861	80.5188	53.6800 
791.514	0.1626	0.0234	0.9912	1.0376	5.6152	-0.4883	1.7798	-7.5421	80.5023	53.7300 
791.514	0.1621	0.0293	1.0034	0.9766	5.9204	-0.7935	1.7853	-7.4927	80.4858	53.7300 
791.530	0.1563	0.0308	1.0015	0.9155	6.4087	-0.8545	1.7963	-7.4432	80.4639	53.5800 
791.530	0.1563	0.0269	1.0024	0.7935	6.9580	-0.7324	1.8018	-7.3828	80.4474	53.5300 
791.577	0.1475	0.0249	0.9932	1.4038	7.4463	-1.0376	1.8127	-7.3114	80.4309	53.5300 
791.577	0.1431	0.0273	0.9766	1.2207	7.9956	-0.7324	1.8292	-7.2400	80.4144	53.6800 
791.577	0.1382	0.0259	0.9653	1.2817	9.6436	-0.5493	1.8402	-7.1576	80.3979	53.3900 
791.577	0.1333	0.0205	0.9531	1.4648	11.2305	-0.3662	1.8512	-7.0532	80.3870	53.3900 
791.577	0.1313	0.0176	0.9600	1.4038	12.3901	-0.7935	1.8622	-6.9379	80.3760	53.5300 
791.592	0.1328	0.0127	0.9604	1.5259	13.0615	-1.2817	1.8677	-6.8170	80.3595	53.6800 
791.592	0.1333	0.0083	0.9556	1.5869	13.0615	-1.7090	1.8787	-6.6907	80.3430	53.3900 
791.639	0.1299	-0.0005	0.9546	1.4648	12.7563	-1.8311	1.8842	-6.5698	80.3265	53.6800 
791.639	0.1313	-0.0127	0.9443	1.0986	12.9395	-1.5869	1.8842	-6.4490	80.3156	53.6800 
791.655	0.1265	-0.0225	0.9507	1.4038	13.1226	-2.1362	1.8842	-6.3281	80.3101	53.7700 
791.655	0.1240	-0.0342	0.9600	1.0376	12.7563	-2.5024	1.8732	-6.2018	80.2991	53.6800 
791.686	0.1294	-0.0439	0.9785	0.6714	12.0239	-2.9907	1.8567	-6.0864	80.2881	53.5800 
791.686	0.1294	-0.0400	1.0112	0.1831	12.0239	-2.9297	1.8347	-5.9766	80.2771	53.5300 
791.686	0.1304	-0.0449	1.0435	-0.3052	11.7188	-3.3569	1.8127	-5.8667	80.2606	53.3900 
791.764	0.1406	-0.0366	1.0625	-1.2817	11.5356	-3.6011	1.7798	-5.7623	80.2441	53.3900 
791.764	0.1484	-0.0391	1.0723	-1.7090	11.9019	-4.3945	1.7468	-5.6525	80.2167	53.5300 
791.764	0.1533	-0.0322	1.0723	-1.7090	12.0239	-4.6997	1.7139	-5.5481	80.1837	53.7700 
791.764	0.1401	-0.0405	1.0713	-1.5869	11.7798	-4.6997	1.6809	-5.4437	80.1508	53.5300 
791.795	0.1328	-0.0596	1.0503	-1.7700	10.4370	-5.5542	1.6370	-5.3448	80.1233	53.5300 
791.795	0.1382	-0.0630	1.0181	-1.6479	10.8032	-7.2021	1.5930	-5.2515	80.0793	53.3900 
791.795	0.1499	-0.0532	1.0200	-1.7700	10.0708	-7.7515	1.5546	-5.1636	80.0189	53.6800 
791.795	0.1455	-0.0562	1.0122	-1.4648	8.3618	-8.1787	1.5216	-5.0922	79.9640	53.3900 
791.795	0.1445	-0.0732	0.9800	-1.0986	6.8970	-9.7656	1.4832	-5.0372	79.9036	53.5800 
791.795	0.1753	-0.0483	0.9697	-0.9155	6.5308	-12.6343	1.4612	-4.9988	79.8047	53.4400 
791.795	0.1919	-0.0430	0.9844	-0.4272	6.2256	-12.5732	1.4447	-4.9658	79.7003	53.5300 
791.795	0.2080	-0.0439	0.9922	-0.4272	5.1880	-11.9629	1.4282	-4.9438	79.5959	53.7700 
791.811	0.1846	-0.0444	1.0083	-0.6104	4.0894	-10.1318	1.4063	-4.9384	79.5135	53.5300 
791.811	0.1724	-0.0410	1.0200	-0.7935	3.2959	-7.6904	1.3843	-4.9329	79.4531	53.5800 
791.842	0.1709	-0.0381	1.0239	-1.5259	3.8452	-6.8970	1.3568	-4.9219	79.4037	53.3900 
791.842	0.1929	-0.0303	1.0381	-2.1973	5.9814	-7.5684	1.3293	-4.8944	79.3433	53.7300 
791.842	0.2134	-0.0181	1.0679	-2.0752	5.5542	-7.2021	1.3019	-4.8724	79.2828	53.5300 
791.889	0.2183	-0.0161	1.0728	-1.8921	1.8311	-6.5308	1.2744	-4.8834	79.2334	53.5800 
791.905	0.1982	-0.0273	1.0469	-1.2817	-2.6245	-6.1035	1.2469	-4.9329	79.1840	53.5800 
791.905	0.1733	-0.0391	1.0010	-0.8545	-4.6387	-6.3477	1.2305	-5.0098	79.1400	53.5800 
791.905	0.1592	-0.0352	0.9766	-0.1221	-3.9063	-7.2021	1.2140	-5.0757	79.0906	53.5300 
791.921	0.1563	-0.0317	0.9521	0.0610	-2.7466	-8.3008	1.2030	-5.1251	79.0302	53.5300 
791.921	0.1533	-0.0249	0.9409	0.6104	-1.5869	-8.7891	1.2030	-5.1691	78.9587	53.3900 
791.921	0.1509	-0.0239	0.9243	0.6714	-0.4883	-9.0942	1.1975	-5.2020	78.8873	53.5800 
791.921	0.1504	-0.0210	0.9155	1.2817	0.3662	-8.6670	1.2030	-5.2240	78.8159	53.3400 
791.967	0.1470	-0.0313	0.9204	1.4038	1.4648	-8.3618	1.2085	-5.2350	78.7555	53.5300 
791.967	0.1553	-0.0298	0.9375	1.2207	2.0752	-8.3008	1.2085	-5.2350	78.6896	53.5800 
791.967	0.1704	-0.0322	0.9546	1.0376	2.9297	-8.3008	1.2140	-5.2405	78.6292	53.6800 
791.998	0.1870	-0.0327	0.9849	0.3052	3.6011	-7.6294	1.2085	-5.2350	78.5742	53.7300 
791.998	0.1948	-0.0396	1.0020	0.0000	3.7842	-7.3853	1.1920	-5.2295	78.5193	53.4400 
791.998	0.1992	-0.0537	1.0308	-0.5493	3.7842	-8.0566	1.1755	-5.2240	78.4698	53.5300 
791.998	0.1914	-0.0488	1.0464	-1.0376	2.5635	-8.8501	1.1536	-5.2295	78.4094	53.5800 
791.998	0.1924	-0.0605	1.0400	-1.0376	1.4038	-8.7891	1.1261	-5.2405	78.3490	53.6800 
792.014	0.1709	-0.0586	1.0200	-1.2817	0.5493	-7.0801	1.0931	-5.2625	78.3051	53.7300 
792.045	0.1421	-0.0640	0.9937	-2.1362	0.0000	-5.1270	1.0492	-5.2789	78.2831	53.6800 
792.045	0.1279	-0.0630	0.9604	-3.0518	0.2441	-3.8452	0.9998	-5.2954	78.2721	53.5300 
792.061	0.1138	-0.0576	0.9346	-3.2959	2.6855	-2.6855	0.9448	-5.2844	78.2721	53.5300 
792.061	0.1123	-0.0625	0.9297	-3.1128	6.0425	-1.2207	0.8844	-5.2460	78.2886	53.5300 
792.092	0.1255	-0.0552	0.9438	-2.9907	8.1787	0.3052	0.8295	-5.1801	78.3160	53.5300 
792.092	0.1470	-0.0376	0.9536	-3.4790	9.6436	2.3804	0.7745	-5.1086	78.3600	53.3900 
792.140	0.1577	-0.0444	0.9717	-3.1128	10.9863	5.0659	0.7196	-5.0262	78.4314	53.5300 
792.140	0.1704	-0.0381	1.0059	-2.5635	10.7422	7.1411	0.6702	-4.9438	78.5248	53.3900 
792.140	0.1714	-0.0430	1.0366	-1.9531	10.4370	8.9722	0.6262	-4.8669	78.6346	53.7300 
792.140	0.1797	-0.0400	1.0684	-1.8921	11.4136	9.8267	0.5823	-4.7845	78.7555	53.5800 
792.140	0.1982	-0.0430	1.0928	-0.8545	11.0474	10.9253	0.5438	-4.7131	78.8818	53.6800 
792.140	0.2041	-0.0459	1.1313	0.1831	9.9487	11.5356	0.5219	-4.6417	79.0247	53.7700 
792.140	0.2139	-0.0459	1.1460	1.0376	6.2256	12.0850	0.4999	-4.6033	79.1620	53.7300 
792.171	0.2202	-0.0566	1.1230	2.1973	2.4414	11.7188	0.4944	-4.6088	79.3048	53.3900 
792.171	0.2212	-0.0664	1.1079	3.6011	0.1831	11.6577	0.4999	-4.6472	79.4476	53.5800 
792.171	0.2197	-0.0796	1.0923	3.9673	-1.9531	11.5967	0.4999	-4.7021	79.5905	53.3900 
792.202	0.2236	-0.0986	1.0796	3.2349	-4.5166	12.4512	0.4944	-4.7845	79.7388	53.5300 
792.202	0.2197	-0.1084	1.0576	2.5635	-7.2021	13.4277	0.4779	-4.8889	79.9036	53.5800 
792.202	0.2178	-0.1138	1.0391	1.5259	-9.9487	14.2822	0.4449	-5.0262	80.0793	53.5800 
792.233	0.2095	-0.1245	1.0410	0.3052	-13.1226	15.7471	0.3955	-5.1910	80.2716	53.5300 
792.233	0.2017	-0.1172	1.0278	-1.6479	-15.9912	16.9678	0.3296	-5.3833	80.4694	53.5800 
792.233	0.1699	-0.1162	1.0254	-3.9673	-17.4561	19.0430	0.2417	-5.5811	80.6891	53.5300 
792.264	0.1299	-0.1123	1.0586	-5.8594	-16.2964	19.4702	0.1263	-5.7623	80.9198	53.5300 
792.295	0.1177	-0.1006	1.1108	-7.8125	-13.7939	18.4326	0.0000	-5.9106	81.1340	53.5800 
792.295	0.1221	-0.0664	1.1509	-9.2773	-10.8032	16.2964	-0.1208	-6.0260	81.3153	53.6800 
792.295	0.1147	-0.0254	1.1768	-9.5215	-7.1411	16.3574	-0.2417	-6.1029	81.4746	53.3900 
792.295	0.0708	-0.0132	1.2036	-9.9487	-5.9814	16.2354	-0.3625	-6.1523	81.6284	53.5800 
792.327	0.0283	-0.0166	1.1777	-9.3384	-5.3711	14.7095	-0.4779	-6.1798	81.7712	53.7300 
792.327	0.0171	-0.0083	1.1494	-8.4229	-2.4414	12.8784	-0.5768	-6.1798	81.8866	53.6800 
792.327	0.0488	0.0200	1.1196	-8.4839	1.2817	13.4888	-0.6647	-6.1523	81.9910	53.6800 
792.327	0.0483	0.0371	1.1123	-8.4229	1.8921	16.3574	-0.7526	-6.1084	82.1118	53.6800 
792.358	0.0444	0.0303	1.0977	-8.3008	0.2441	16.8457	-0.8350	-6.0754	82.2491	53.5800 
792.358	0.0400	0.0322	1.0356	-7.9346	-2.6245	16.6626	-0.9174	-6.0699	82.3810	53.7700 
792.358	0.0205	0.0386	0.9868	-6.3477	-4.8218	17.3950	-0.9833	-6.0864	82.5128	53.5300 
792.389	-0.0176	0.0259	0.9160	-5.2490	-7.3853	17.2729	-1.0437	-6.1084	82.6447	53.4400 
792.389	-0.0391	0.0103	0.8301	-3.3569	-9.5215	15.3809	-1.0822	-6.1469	82.7655	53.3900 
792.389	-0.0542	0.0278	0.7485	-1.5869	-9.2773	13.6108	-1.0986	-6.1798	82.8589	53.4400 
792.389	-0.0474	0.0400	0.6772	-0.3662	-5.9204	12.8174	-1.0876	-6.1908	82.9303	53.5300 
792.436	-0.0215	0.0493	0.6636	0.6714	0.9155	13.4888	-1.0602	-6.1469	82.9962	53.7300 
792.436	0.0122	0.0962	0.7168	1.0376	8.6060	14.0991	-1.0162	-6.0480	83.0511	53.7300 
792.483	0.0327	0.0918	0.8101	1.3428	13.0005	15.9912	-0.9668	-5.9052	83.1281	53.5800 
792.483	0.0239	0.0850	0.9106	2.3193	14.2822	18.2495	-0.9283	-5.7458	83.2324	53.6800 
792.483	0.0107	0.0508	1.0005	3.6011	14.4043	18.6768	-0.8844	-5.5701	83.3643	53.6800 
792.483	0.0098	0.0303	1.0566	4.2725	13.6719	18.6157	-0.8405	-5.3998	83.5016	53.5300 
792.483	0.0220	0.0137	1.1133	5.5542	12.8784	16.7847	-0.7910	-5.2405	83.6334	53.5300 
792.514	0.0425	0.0107	1.1367	6.2256	10.8643	14.0991	-0.7306	-5.1031	83.7433	53.5800 
792.514	0.0649	0.0098	1.1313	6.1646	9.3384	12.0850	-0.6702	-4.9933	83.8312	53.5300 
792.514	0.0835	0.0068	1.1274	5.8594	7.0801	10.9253	-0.6152	-4.9109	83.9136	53.3900 
792.514	0.0894	0.0117	1.0991	5.2490	4.5776	9.9487	-0.5603	-4.8560	83.9795	53.3900 
792.514	0.0996	0.0244	1.0444	4.5776	2.6245	9.7046	-0.5109	-4.8285	84.0399	53.6800 
792.514	0.0967	0.0171	1.0024	3.8452	2.3193	10.1318	-0.4724	-4.8120	84.1058	53.5800 
792.530	0.0869	0.0112	0.9624	3.6011	1.7090	10.3760	-0.4395	-4.7955	84.1718	53.5300 
792.530	0.0659	0.0000	0.9194	3.4790	1.0376	9.6436	-0.4065	-4.7791	84.2377	53.6800 
792.545	0.0493	-0.0103	0.8730	3.5400	0.3662	8.2397	-0.3790	-4.7681	84.2926	53.7300 
792.577	0.0454	-0.0166	0.8257	3.7842	1.2817	6.2256	-0.3516	-4.7461	84.3365	53.4400 
792.608	0.0522	-0.0229	0.7827	4.1504	4.6997	4.4556	-0.3241	-4.7021	84.3585	53.7700 
792.608	0.0591	-0.0259	0.7974	4.6387	9.0332	3.1128	-0.2911	-4.6198	84.3750	53.3400 
792.608	0.0728	-0.0278	0.8320	4.9438	12.3901	2.0142	-0.2527	-4.5044	84.3750	53.3400 
792.608	0.0811	-0.0215	0.8848	5.9204	14.7095	0.9766	-0.2032	-4.3671	84.3640	53.7300 
792.608	0.0850	-0.0259	0.9438	5.9204	15.8081	0.2441	-0.1538	-4.2188	84.3420	53.7300 
792.639	0.0908	-0.0298	0.9873	5.9814	15.6860	-1.8311	-0.1044	-4.0649	84.3036	53.5800 
792.639	0.1001	-0.0269	1.0298	6.0425	15.1978	-5.3711	-0.0494	-3.9221	84.2377	53.5300 
792.655	0.1235	-0.0234	1.0615	5.8594	13.5498	-7.3853	0.0000	-3.7958	84.1443	53.5800 
792.655	0.1426	-0.0088	1.0649	5.7373	11.4136	-7.5073	0.0549	-3.6969	84.0454	53.5800 
792.701	0.1465	0.0039	1.0771	4.8828	7.9346	-7.0190	0.1154	-3.6310	83.9410	53.3900 
792.701	0.1499	0.0127	1.0640	4.3335	3.7231	-6.9580	0.1648	-3.6090	83.8422	53.5300 
792.733	0.1548	0.0229	1.0532	4.1504	1.1597	-7.0190	0.2197	-3.6200	83.7378	53.5300 
792.733	0.1489	0.0278	1.0317	4.2114	-0.1221	-6.2866	0.2692	-3.6475	83.6389	53.5800 
792.733	0.1440	0.0298	1.0122	4.5776	-0.4883	-6.4697	0.3186	-3.6804	83.5400	53.5300 
792.733	0.1450	0.0327	0.9912	4.1504	-1.1597	-7.5073	0.3735	-3.7189	83.4302	53.5300 
792.733	0.1411	0.0298	0.9668	4.6997	-0.1221	-7.7515	0.4285	-3.7518	83.3203	53.5300 
792.733	0.1348	0.0322	0.9722	5.3101	0.6714	-8.8501	0.4944	-3.7738	83.1995	53.6800 
792.733	0.1313	0.0283	0.9819	5.4932	0.6714	-10.1318	0.5603	-3.7848	83.0676	53.5300 
792.764	0.1206	0.0400	0.9917	5.7373	0.7935	-11.0474	0.6372	-3.7958	82.9193	53.5800 
792.764	0.1045	0.0483	1.0078	5.6763	0.0610	-11.6577	0.7141	-3.8068	82.7655	53.5300 
792.796	0.0942	0.0415	1.0205	5.6152	-0.7935	-13.0615	0.7855	-3.8232	82.6007	53.7700 
792.796	0.0903	0.0410	1.0298	5.4932	-0.3052	-15.3198	0.8569	-3.8342	82.4139	53.5300 
792.827	0.0986	0.0371	1.0654	5.3101	0.1831	-17.7002	0.9283	-3.8397	82.2107	53.3900 
792.827	0.0952	0.0391	1.1030	4.6997	0.2441	-18.5547	0.9998	-3.8452	81.9910	53.5800 
792.827	0.0874	0.0439	1.1348	3.9673	-0.3052	-18.4937	1.0602	-3.8452	81.7712	53.6800 
792.858	0.0859	0.0435	1.1392	2.6855	-1.6479	-18.1274	1.1096	-3.8617	81.5625	53.6800 
792.858	0.0874	0.0640	1.1431	2.0142	-2.0752	-17.6392	1.1536	-3.8837	81.3483	53.6800 
792.858	0.0903	0.0664	1.1714	1.4038	-2.3193	-17.5781	1.1920	-3.9001	81.1395	53.5300 
792.905	0.1104	0.0796	1.1875	0.5493	-3.3569	-17.5171	1.2250	-3.9386	80.9308	53.5300 
792.905	0.1401	0.0869	1.1865	0.7935	-5.1270	-18.3716	1.2634	-3.9935	80.7111	53.5300 
792.905	0.1538	0.0728	1.1841	0.6714	-7.2021	-18.1274	1.2964	-4.0759	80.4968	53.7300 
792.905	0.1650	0.0542	1.1997	0.5493	-10.0708	-17.3340	1.3293	-4.1913	80.2991	53.7300 
792.905	0.1260	-0.0068	1.2412	0.7324	-13.4888	-16.6626	1.3458	-4.3231	80.1233	53.5800 
792.952	0.0879	-0.0371	1.2861	0.4883	-17.5781	-19.7144	1.3458	-4.4824	79.9365	53.5800 
792.952	0.0669	-0.0181	1.2954	0.1221	-20.6909	-22.7051	1.3513	-4.6692	79.7113	53.5300 
792.952	0.0479	0.0249	1.2612	-1.0986	-22.3389	-22.1558	1.3568	-4.8669	79.4751	53.7300 
792.952	0.0225	0.0674	1.1987	-1.8921	-23.5596	-16.4795	1.3678	-5.0757	79.2609	53.5800 
792.952	-0.0137	0.0396	1.1455	-2.0752	-23.2544	-13.2446	1.3678	-5.2789	79.0961	53.6800 
792.952	-0.0396	0.0308	1.0928	-2.2583	-22.8882	-15.3809	1.3623	-5.4602	78.9258	53.5800 
792.983	-0.0225	0.0244	1.0137	-1.7090	-22.7661	-19.7144	1.3623	-5.6415	78.7170	53.6800 
792.983	-0.0010	0.0415	0.9199	-1.5259	-19.8975	-18.3716	1.3788	-5.8063	78.4973	53.5800 
792.983	-0.0649	0.2808	0.7148	-1.3428	-14.1602	2.8687	1.4392	-5.9271	78.3325	53.5800 
793.015	-0.0649	-0.1865	0.8149	-2.1973	-4.8218	-11.2915	1.3403	-5.9271	78.3655	53.6800 
793.015	-0.0684	-0.0903	0.7588	-2.3804	-7.0801	-14.9536	1.2799	-5.9271	78.2556	53.5300 
793.046	-0.0942	-0.1494	0.7397	-1.2817	-8.5449	-19.8975	1.2030	-5.9381	78.1458	53.5300 
793.046	-0.0952	-0.1353	0.6655	0.2441	-3.5400	-18.6768	1.1371	-5.9161	78.0414	53.5800 
793.046	-0.0342	-0.2402	0.7012	-0.7935	4.8218	-11.7188	1.0382	-5.8392	78.0084	53.6800 
793.046	-0.0654	-0.2021	0.8574	-0.1221	18.9819	-38.2690	0.9119	-5.6305	77.8876	53.5800 
793.077	0.0146	-0.1606	0.9824	0.8545	15.2588	-30.3955	0.8954	-5.4272	77.6349	53.5300 
793.077	0.0103	-0.0957	1.0557	-0.3662	14.8315	-30.0903	0.8734	-5.2570	77.3767	53.3900 
793.077	0.0054	-0.0825	1.0918	-2.1362	13.0615	-25.8789	0.8459	-5.0812	77.1405	53.5800 
793.123	0.0156	-0.0625	1.0688	-3.2349	9.4604	-24.3530	0.8075	-4.9548	76.9208	53.5800 
793.139	0.0537	-0.0386	1.0361	-6.0425	7.3853	-21.7896	0.7581	-4.8560	76.7175	53.5300 
793.171	0.0747	-0.0220	1.0029	-7.5073	10.3760	-18.9209	0.6866	-4.7571	76.5417	53.5300 
793.171	0.0762	-0.0161	1.0254	-8.0566	11.2305	-17.2729	0.6152	-4.6362	76.3824	53.5300 
793.171	0.0874	0.0005	1.0215	-7.8735	7.6294	-17.3340	0.5438	-4.5538	76.2177	53.3400 
793.171	0.0991	0.0137	0.9751	-6.7139	4.8828	-16.4185	0.4889	-4.5044	76.0583	53.3900 
793.171	0.0986	0.0273	0.9272	-5.0049	4.3335	-13.1836	0.4504	-4.4714	75.9265	53.5800 
793.171	0.0747	0.0215	0.9141	-2.8076	5.4932	-10.0708	0.4285	-4.4275	75.8167	53.3900 
793.171	0.0435	0.0107	0.9160	-0.4272	5.7983	-9.0332	0.4340	-4.3616	75.7288	53.3900 
793.171	0.0229	0.0146	0.9214	1.6479	5.6763	-9.5215	0.4504	-4.2847	75.6409	53.6800 
793.218	0.0225	0.0322	0.9272	3.5400	6.7139	-9.3994	0.4999	-4.2078	75.5420	53.3900 
793.218	0.0337	0.0503	0.9546	5.0049	7.4463	-7.5073	0.5658	-4.1199	75.4541	53.5800 
793.218	0.0508	0.0586	0.9717	5.8594	7.0801	-5.4321	0.6427	-4.0430	75.3827	53.5800 
793.218	0.0562	0.0527	0.9751	6.5308	7.2021	-2.9297	0.7251	-3.9661	75.3387	53.5800 
793.249	0.0664	0.0366	0.9702	6.7749	7.1411	-0.5493	0.8020	-3.8947	75.3223	53.6800 
793.264	0.0737	0.0161	0.9648	6.2256	7.5073	1.2817	0.8679	-3.8232	75.3387	53.3900 
793.264	0.0889	-0.0054	0.9546	6.8359	8.7280	3.6621	0.9283	-3.7518	75.3882	53.5800 
793.280	0.0962	-0.0327	0.9624	6.2256	9.6436	5.6763	0.9723	-3.6694	75.4706	53.6800 
793.280	0.1084	-0.0405	0.9897	5.9204	9.5215	6.4087	1.0107	-3.5925	75.5640	53.3900 
793.280	0.1147	-0.0479	1.0005	5.7373	6.9580	7.3853	1.0382	-3.5321	75.6683	53.5300 
793.280	0.1055	-0.0400	1.0083	6.2256	2.8076	10.6201	1.0767	-3.5156	75.7947	53.3900 
793.327	0.0938	-0.0405	1.0005	5.9204	-2.0752	13.7939	1.1096	-3.5376	75.9540	53.3900 
793.358	0.0996	-0.0337	0.9590	5.7373	-4.9438	15.1978	1.1371	-3.5980	76.1243	53.5300 
793.358	0.1021	-0.0210	0.9253	5.5542	-5.5542	16.5405	1.1700	-3.6694	76.3110	53.6800 
793.358	0.1118	0.0093	0.8975	5.9814	-5.4932	19.3481	1.2085	-3.7518	76.5033	53.7300 
793.358	0.1040	0.0068	0.8965	6.1035	-5.3711	23.2544	1.2524	-3.8287	76.7340	53.6800 
793.358	0.0967	-0.0024	0.9155	5.9814	-3.9063	25.2686	1.2909	-3.8892	76.9922	53.2500 
793.358	0.0879	-0.0117	0.9609	5.7373	-1.3428	25.4517	1.3184	-3.9276	77.2559	53.5300 
793.390	0.0845	-0.0098	1.0098	6.3477	0.8545	24.9023	1.3458	-3.9331	77.5140	53.7300 
793.390	0.0835	-0.0239	1.0664	6.9580	1.8921	24.7803	1.3843	-3.9221	77.7722	53.5300 
793.390	0.0688	-0.0288	1.1099	8.3008	1.0986	24.7192	1.4282	-3.9111	78.0249	53.5800 
793.390	0.0581	-0.0239	1.1328	10.2539	-0.9155	24.2920	1.4941	-3.9166	78.2776	53.5800 
793.421	0.0581	-0.0244	1.1396	12.1460	-3.2959	24.8413	1.5765	-3.9441	78.5248	53.5300 
793.421	0.0620	-0.0254	1.1348	14.2822	-6.2256	24.4141	1.6809	-3.9990	78.7720	53.5300 
793.452	0.0786	-0.0103	1.1030	14.7705	-9.1553	24.6582	1.7963	-4.0924	79.0192	53.3400 
793.452	0.0571	0.0396	1.0913	14.7705	-7.9346	27.7710	1.9226	-4.1858	79.2664	53.6800 
793.483	-0.0171	0.0420	1.1899	14.2822	-1.9531	32.7148	2.0490	-4.2023	79.5575	53.4400 
793.483	-0.0371	-0.0259	1.3125	14.2822	-0.3052	29.9072	2.1533	-4.1803	79.8541	53.5300 
793.483	0.0024	-0.0532	1.3730	14.2212	-3.4790	24.0479	2.2522	-4.1913	80.1068	53.5300 
793.483	0.0322	-0.0244	1.3496	13.7329	-9.3994	23.8647	2.3511	-4.2572	80.3375	53.4400 
793.483	0.0151	-0.0098	1.2798	12.7563	-16.6626	29.7241	2.4445	-4.3945	80.6012	53.4400 
793.483	-0.0430	-0.0024	1.1650	10.8643	-18.9209	32.6538	2.5214	-4.5648	80.8978	53.5800 
793.530	-0.1030	-0.0132	1.0811	8.4229	-15.0146	31.4331	2.5653	-4.6857	81.1890	53.5300 
793.530	-0.1045	-0.0161	1.0068	5.9814	-11.2915	25.5127	2.5928	-4.7516	81.4307	53.5300 
793.530	-0.0879	0.0273	0.9287	3.9673	-8.1177	22.0947	2.6147	-4.7845	81.6174	53.4400 
793.562	-0.0942	0.0869	0.8745	2.1973	-4.7607	23.5596	2.6367	-4.7900	81.7712	53.5300 
793.562	-0.1274	0.1274	0.8301	1.0376	-3.2349	28.6865	2.6752	-4.7681	81.9415	53.3900 
793.562	-0.1450	0.1440	0.7896	0.1221	0.0000	30.1514	2.7136	-4.7131	82.1118	53.5300 
793.562	-0.1279	0.1694	0.7759	0.3052	5.2490	28.6865	2.7631	-4.6143	82.2656	53.5300 
793.562	-0.0703	0.1816	0.8110	1.5869	12.4512	26.0010	2.8235	-4.4659	82.4084	53.5800 
793.593	-0.0127	0.1597	0.9004	5.4321	18.1885	22.6440	2.9004	-4.2792	82.5513	53.5300 
793.593	-0.0132	0.1152	1.0225	8.9111	19.9585	19.0430	2.9993	-4.0704	82.6776	53.7300 
793.593	-0.0317	0.0586	1.1328	11.2305	16.9067	14.5874	3.0981	-3.8672	82.7875	53.6800 
793.624	-0.0435	0.0425	1.1909	11.9629	10.5591	12.2070	3.2025	-3.7189	82.8699	53.7300 
793.624	-0.0454	0.0371	1.1636	10.1929	1.2207	12.8784	3.3014	-3.6530	82.9523	53.3900 
793.624	-0.0327	0.0415	1.0508	7.9956	-3.3569	15.3809	3.3728	-3.6530	83.0511	53.5300 
793.655	0.0049	0.0781	0.9741	5.0659	-0.9766	15.1978	3.4277	-3.6584	83.1445	53.5300 
793.655	0.0088	0.0947	0.9658	2.8687	0.0000	16.9678	3.4662	-3.6475	83.2379	53.5300 
793.670	0.0044	0.0747	0.9507	1.2817	-2.4414	16.8457	3.4772	-3.6584	83.3423	53.3900 
793.670	-0.0010	0.0620	0.9136	0.2441	-3.7231	16.6626	3.4827	-3.6804	83.4467	53.3900 
793.733	0.0005	0.0459	0.8887	-0.9155	-4.3335	18.0054	3.4607	-3.7134	83.5675	53.3400 
793.733	0.0146	0.0239	0.8647	-1.9531	-2.8687	17.7002	3.4277	-3.7354	83.6993	53.4400 
793.748	0.0303	0.0103	0.8511	-1.8311	-0.0610	15.3198	3.3838	-3.7408	83.8257	53.4400 
793.780	0.0303	0.0078	0.8599	-1.4648	1.5259	12.2070	3.3398	-3.7299	83.9246	53.3900 
793.780	0.0513	-0.0137	0.8745	-1.4038	1.5259	8.8501	3.2959	-3.7134	84.0015	53.7300 
793.780	0.0654	0.0024	0.8828	-1.4648	0.7324	4.6997	3.2574	-3.7079	84.0344	53.6800 
793.780	0.0645	0.0156	0.8853	-2.1973	0.0000	2.8687	3.2245	-3.7079	84.0344	53.5300 
793.780	0.0498	0.0342	0.8877	-2.6245	-0.9766	1.3428	3.1860	-3.7134	84.0125	53.5800 
793.780	0.0400	0.0596	0.8755	-4.1504	-2.5024	0.4272	3.1531	-3.7299	83.9630	53.5300 
793.780	0.0352	0.0811	0.8521	-5.3101	-3.6011	-0.4883	3.1091	-3.7573	83.8971	53.5300 
793.795	0.0459	0.0840	0.8296	-5.5542	-2.8687	-2.6245	3.0707	-3.7848	83.8147	53.3900 
793.795	0.0415	0.0845	0.8032	-5.8594	-3.1738	-3.2959	3.0377	-3.8068	83.7103	53.3900 
793.827	0.0332	0.0854	0.7847	-5.6763	-4.1504	-4.6387	3.0048	-3.8397	83.6005	53.3900 
793.827	0.0317	0.0693	0.7534	-5.3101	-4.2725	-6.1646	2.9663	-3.8727	83.4741	53.3900 
793.827	0.0229	0.0630	0.7290	-5.8594	-3.6011	-6.8970	2.9279	-3.8947	83.3423	53.3900 
793.842	0.0205	0.0459	0.7246	-5.7373	-2.9907	-8.3618	2.8839	-3.9111	83.1995	53.5300 
793.874	0.0244	0.0254	0.7305	-5.8594	-2.2583	-9.8877	2.8290	-3.9166	83.0621	53.5800 
793.874	0.0435	0.0244	0.7725	-6.0425	-0.0610	-12.1460	2.7740	-3.9111	82.9083	53.3900 
793.874	0.0835	0.0293	0.8359	-5.9204	1.8921	-14.2822	2.7191	-3.8947	82.7380	53.3900 
793.874	0.1216	0.0508	0.9043	-5.7373	1.7700	-17.1509	2.6697	-3.8837	82.5403	53.3900 
793.905	0.1611	0.0771	0.9458	-5.4932	-0.6104	-19.7754	2.6367	-3.9056	82.3041	53.3900 
793.905	0.1938	0.1128	0.9434	-5.1270	-4.6387	-20.0806	2.6147	-3.9771	82.0514	53.5800 
793.905	0.1680	0.1099	0.9180	-4.9438	-11.3525	-16.5405	2.6038	-4.1089	81.8207	53.3900 
793.920	0.1206	0.0903	0.8579	-5.4321	-16.9678	-16.0522	2.5818	-4.2847	81.6064	53.3900 
793.952	0.0562	0.0723	0.7739	-6.1646	-18.7378	-16.1133	2.5543	-4.4659	81.3812	53.4400 
793.967	0.0142	0.0518	0.7202	-6.7749	-15.8081	-17.9443	2.5104	-4.6143	81.1560	53.5800 
794.014	0.0225	0.0693	0.7188	-7.2021	-10.9253	-19.1040	2.4719	-4.7076	80.9088	53.6800 
794.014	0.0400	0.0850	0.7612	-7.4463	-6.8970	-18.8599	2.4335	-4.7681	80.6616	53.3900 
794.014	0.0620	0.1074	0.8159	-6.9580	-5.6152	-17.0898	2.4115	-4.8120	80.4254	53.5300 
794.014	0.0737	0.1255	0.8477	-5.6763	-7.2632	-14.9536	2.4005	-4.8779	80.2057	53.3900 
794.014	0.0747	0.1421	0.8613	-4.5166	-9.5825	-12.4512	2.4005	-4.9658	80.0024	53.5800 
794.014	0.0728	0.1411	0.8662	-3.9063	-9.5215	-11.1084	2.4170	-5.0592	79.8157	53.5300 
794.014	0.0825	0.1328	0.8828	-3.2959	-8.9111	-10.6812	2.4280	-5.1471	79.6454	53.3900 
794.014	0.0859	0.1348	0.9097	-2.6855	-8.2397	-10.1318	2.4445	-5.2350	79.4751	53.5300 
794.014	0.0059	0.0635	0.9775	-1.0986	-6.4087	-4.4556	2.4609	-5.2844	79.3652	53.3400 
794.045	-0.0024	0.0054	1.0776	0.1221	0.6714	-12.5122	2.4500	-5.2570	79.2499	53.5300 
794.061	0.0142	-0.0176	1.2412	1.5259	7.0801	-13.8550	2.4609	-5.1636	79.1071	53.3900 
794.077	0.0142	0.0220	1.4043	2.0142	10.6201	-15.0146	2.4774	-5.0317	78.9478	53.3900 
794.077	0.0049	0.0396	1.5024	1.7700	6.4697	-9.0332	2.4994	-4.9219	78.8324	53.5800 
794.108	-0.0288	0.0000	1.5122	2.1362	1.1597	-4.5776	2.5104	-4.8615	78.7665	53.5300 
794.108	-0.0713	-0.0645	1.4414	2.7466	-2.5024	-1.7090	2.5159	-4.8340	78.7445	53.5300 
794.108	-0.0952	-0.1216	1.3013	2.1362	-3.5400	-0.7935	2.4939	-4.8175	78.7610	53.3900 
794.108	-0.1304	-0.1445	1.1499	1.2207	4.4556	2.1362	2.4445	-4.7406	78.8214	53.3900 
794.155	-0.1323	-0.1514	1.0815	-1.0986	17.6392	2.5024	2.3676	-4.5374	78.9148	53.5300 
794.155	-0.0869	-0.1016	1.0527	-2.8076	27.8320	1.8311	2.2906	-4.2242	78.9807	53.5300 
794.155	-0.0181	-0.0518	1.0581	-3.6621	33.9355	0.9155	2.2192	-3.8617	79.0247	53.3900 
794.155	0.0234	-0.0010	1.0859	-2.7466	35.9497	2.5635	2.1698	-3.4937	79.0576	53.5300 
794.187	0.0259	0.0137	1.1758	-0.9155	37.9028	3.5400	2.1423	-3.1091	79.0961	53.2500 
794.187	0.0352	0.0137	1.3101	1.7090	39.4287	1.7700	2.1423	-2.7081	79.1235	53.2500 
794.187	0.0708	0.0059	1.4414	3.9673	36.1938	0.2441	2.1643	-2.3346	79.1345	53.4400 
794.187	0.1055	0.0107	1.5078	6.5308	26.4282	1.3428	2.2137	-2.0544	79.1455	53.6800 
794.218	0.1045	0.0059	1.4570	9.5825	11.9629	5.0659	2.2852	-1.9116	79.1840	53.1500 
794.218	0.0908	-0.0303	1.2778	12.1460	-0.4883	9.2163	2.3785	-1.9061	79.2719	53.3400 
794.218	0.0376	-0.0571	1.1304	12.5732	-3.7842	13.8550	2.4719	-1.9446	79.4037	53.5300 
794.249	-0.0103	-0.1040	1.0508	11.8408	-4.6997	13.8550	2.5433	-1.9885	79.5740	53.3900 
794.249	0.0137	-0.1255	0.9849	9.7656	-3.2959	7.5684	2.5818	-2.0215	79.7113	53.3900 
794.264	0.0674	-0.0679	0.9653	8.0566	-0.1221	0.1831	2.6202	-2.0380	79.7498	53.4400 
794.264	0.0693	-0.0664	0.9512	7.5073	2.1362	-1.4648	2.6587	-2.0380	79.7607	53.3900 
794.264	0.0732	-0.0645	0.9326	8.0566	3.2959	-4.8218	2.6971	-2.0215	79.7443	53.7300 
794.280	0.0767	-0.0693	0.9180	8.6060	2.5635	-5.2490	2.7411	-2.0050	79.7168	53.3900 
794.295	0.0771	-0.0562	0.8853	9.0942	1.4648	-3.8452	2.7960	-2.0050	79.6893	53.5300 
794.295	0.0693	-0.0513	0.8486	9.1553	0.9155	-2.5024	2.8564	-2.0160	79.6838	53.5300 
794.295	0.0674	-0.0586	0.8213	9.4604	1.2817	-3.6621	2.9059	-2.0160	79.6729	53.3400 
794.342	0.0781	-0.0547	0.8110	8.8501	0.5493	-5.6152	2.9608	-2.0270	79.6454	53.5300 
794.374	0.0869	-0.0420	0.8145	8.1177	-1.2207	-6.2866	3.0103	-2.0544	79.6069	53.5300 
794.374	0.0762	-0.0459	0.8218	6.9580	-3.9673	-5.6763	3.0487	-2.1039	79.5685	53.5300 
794.374	0.0542	-0.0625	0.8174	5.9814	-6.2256	-5.9204	3.0707	-2.1753	79.5300	53.3900 
794.374	0.0361	-0.0698	0.7974	4.3945	-6.8359	-5.3711	3.0762	-2.2467	79.5081	53.5300 
794.374	0.0391	-0.0659	0.7856	2.9297	-7.3242	-3.7231	3.0597	-2.3181	79.4916	53.3900 
794.374	0.0439	-0.0410	0.7705	1.5869	-7.9956	-0.2441	3.0432	-2.4060	79.5026	53.5300 
794.405	0.0195	-0.0132	0.7607	0.4272	-9.0332	4.0283	3.0212	-2.4884	79.5355	53.5300 
794.405	-0.0010	0.0044	0.7461	-0.6104	-9.2773	6.6528	2.9993	-2.5708	79.5795	53.4400 
794.437	0.0088	0.0156	0.7505	-1.2817	-7.7515	7.7515	2.9773	-2.6422	79.6399	53.3400 
794.437	0.0376	0.0088	0.7876	-1.5869	-5.3101	7.8125	2.9443	-2.7026	79.7058	53.3400 
794.437	0.0835	-0.0142	0.8701	-1.8921	-3.0518	6.1035	2.9004	-2.7521	79.7662	53.5800 
794.437	0.1147	-0.0371	0.9443	-0.6714	-3.9673	5.2490	2.8619	-2.8180	79.8322	53.2500 
794.467	0.1060	-0.0537	1.0049	-0.7935	-6.7139	4.5166	2.8180	-2.9059	79.8926	53.1500 
794.467	0.0996	-0.0708	1.0225	-0.4272	-11.8408	3.7231	2.7686	-3.0267	79.9420	53.3400 
794.483	0.0928	-0.0605	0.9829	-0.6714	-17.7612	3.3569	2.7246	-3.2135	79.9860	53.5300 
794.483	0.0806	-0.0269	0.9170	-0.7935	-21.9116	4.0283	2.6862	-3.4332	80.0244	53.6800 
794.483	0.0708	-0.0142	0.8701	-0.3662	-23.8647	4.6387	2.6587	-3.6804	80.0574	53.3400 
794.499	0.0718	-0.0273	0.8486	0.3052	-23.9258	5.1880	2.6367	-3.9221	80.1013	53.5300 
794.530	0.0767	-0.0708	0.8594	0.9155	-23.7427	3.2959	2.5983	-4.1693	80.1508	53.5300 
794.530	0.1016	-0.0771	0.8804	1.2817	-22.5220	-0.3662	2.5653	-4.4110	80.1727	53.6800 
794.561	0.0723	-0.0493	0.9170	0.9766	-19.8364	-0.9155	2.5378	-4.6252	80.1727	53.5300 
794.561	0.0024	-0.0430	0.9868	0.2441	-14.3433	-0.6104	2.5159	-4.7626	80.1672	53.3400 
794.561	0.0322	-0.0581	1.0845	0.0000	-6.9580	-5.9814	2.4829	-4.8285	80.1288	53.3900 
794.561	0.0835	0.0117	1.1782	0.7324	-1.3428	-8.5449	2.4774	-4.8395	80.0409	53.3900 
794.561	0.0566	0.0703	1.3105	0.9155	-0.6714	-4.8218	2.4939	-4.8340	79.9530	53.3400 
794.593	-0.0083	0.0796	1.4150	1.4648	-2.9907	-2.9907	2.5159	-4.8285	79.8871	53.5300 
794.608	-0.0249	0.0596	1.4512	1.9531	-6.8359	-6.3477	2.5378	-4.8450	79.7992	53.4400 
794.608	0.0107	0.0552	1.4292	1.7090	-7.7515	-10.0098	2.5653	-4.8889	79.6783	53.5300 
794.639	0.0576	0.0552	1.4189	1.6479	-10.4980	-11.7798	2.5928	-4.9658	79.5355	53.3400 
794.655	0.0815	0.0571	1.3599	1.0376	-12.9395	-13.1226	2.6147	-5.0702	79.3817	53.1500 
794.655	0.0811	0.0815	1.2729	-0.5493	-11.9629	-14.4653	2.6312	-5.1801	79.2059	53.5800 
794.655	0.0952	0.1162	1.1929	-1.7090	-10.2539	-13.9160	2.6477	-5.2734	79.0247	53.3900 
794.670	0.1055	0.1431	1.1270	-2.5635	-7.7515	-12.7563	2.6587	-5.3503	78.8434	53.5300 
794.670	0.1074	0.1362	1.0767	-3.2959	-6.4087	-11.7188	2.6642	-5.4108	78.6786	53.3900 
794.670	0.1084	0.1187	1.0283	-3.2349	-6.7749	-10.6812	2.6697	-5.4767	78.5193	53.3900 
794.686	0.1138	0.0928	0.9824	-2.4414	-9.2773	-10.4980	2.6697	-5.5646	78.3765	53.3900 
794.702	0.0776	0.1226	0.9233	-2.1362	-11.7188	-8.0566	2.6807	-5.6744	78.2391	53.5800 
794.702	-0.0034	0.1567	0.8960	-1.6479	-9.3384	-2.7466	2.7136	-5.7513	78.1238	53.5800 
794.717	-0.0649	0.0815	0.9438	-0.4883	4.0283	-1.7700	2.7356	-5.7019	78.0469	53.3900 
794.717	0.0190	0.0537	1.1445	1.1597	22.5830	-9.0942	2.7521	-5.4767	77.9535	53.3900 
794.764	0.1475	0.1021	1.4209	2.1973	28.7476	-11.2305	2.7905	-5.1855	77.8271	53.5300 
794.764	0.1821	0.1675	1.5288	2.6245	12.0239	-6.6528	2.8400	-5.0208	77.7228	53.2500 
794.780	0.1743	0.2168	1.3662	3.2959	-9.2163	-2.1362	2.9059	-5.0757	77.6459	53.3900 
794.812	0.1792	0.2192	1.1353	3.4790	-15.3198	2.4414	2.9883	-5.2460	77.5964	53.5300 
794.812	0.1821	0.1885	1.0366	2.0752	-14.0381	5.6763	3.0487	-5.4218	77.5854	53.3900 
794.812	0.1685	0.1475	0.9800	0.3662	-13.0005	4.9438	3.0872	-5.5865	77.5909	53.3900 
794.812	0.1440	0.1357	0.8931	-0.9155	-10.1929	3.4180	3.1091	-5.7239	77.5854	53.4400 
794.812	0.1094	0.1338	0.8267	-1.9531	-6.0425	5.3711	3.1201	-5.8118	77.5800	53.5300 
794.843	0.0532	0.1406	0.7749	-1.7700	-2.7466	10.0098	3.1311	-5.8502	77.6074	53.3900 
794.843	0.0122	0.1089	0.7378	-1.5259	-0.8545	12.3291	3.1421	-5.8447	77.6678	53.3400 
794.843	0.0542	0.0820	0.6821	-0.9766	2.1973	10.8032	3.1476	-5.8228	77.7338	53.3400 
794.858	0.1343	0.1094	0.6606	-0.2441	6.8970	7.9346	3.1641	-5.8008	77.7832	53.5300 
794.858	0.1187	0.0908	0.6885	0.0610	7.3853	12.6953	3.1805	-5.7568	77.8656	53.5300 
794.858	0.0894	0.0464	0.6758	0.4272	5.7373	11.4746	3.1805	-5.7184	77.9700	53.5300 
794.874	0.0674	0.0234	0.6387	0.0000	5.5542	10.6812	3.1641	-5.6744	78.0743	53.2000 
794.905	0.0674	0.0254	0.6128	-0.5493	7.0190	11.2915	3.1476	-5.6195	78.1787	53.6800 
794.905	0.0684	0.0200	0.6060	-2.1973	8.9722	13.1836	3.1091	-5.5481	78.3051	53.3900 
794.920	0.0645	-0.0020	0.6016	-2.9297	10.0708	12.6953	3.0542	-5.4602	78.4479	53.3900 
794.920	0.0869	-0.0068	0.6182	-3.1128	11.3525	10.3149	2.9938	-5.3668	78.5742	53.5800 
794.920	0.1255	-0.0137	0.6484	-3.1128	12.0850	7.0801	2.9279	-5.2844	78.6731	53.3900 
794.936	0.1533	0.0112	0.7109	-2.9297	11.3525	4.1504	2.8839	-5.2075	78.7335	53.5300 
794.936	0.1338	0.0210	0.7646	-2.1362	7.2021	3.9673	2.8510	-5.1636	78.7775	53.6800 
794.983	0.1040	0.0337	0.7827	-1.9531	2.1973	2.3193	2.8180	-5.1471	78.7994	53.5300 
794.999	0.0796	0.0454	0.7847	-1.7090	-0.4272	1.4648	2.8015	-5.1526	78.7994	53.2500 
794.999	0.0669	0.0615	0.8193	-1.5259	-0.7935	1.1597	2.7905	-5.1581	78.7885	53.2500 
795.014	0.0811	0.0762	0.8682	-1.0986	0.3052	0.5493	2.7960	-5.1581	78.7665	53.3400 
795.014	0.1074	0.0967	0.9375	-0.6104	0.4272	-0.7935	2.8015	-5.1636	78.7280	53.5300 
795.014	0.1279	0.1284	0.9878	0.1831	-2.8076	-0.8545	2.8235	-5.1910	78.6841	53.3900 
795.030	0.1157	0.1465	0.9727	2.0142	-10.0708	1.0376	2.8729	-5.2844	78.6401	53.3900 
795.030	0.0586	0.1675	0.8862	3.2959	-15.3809	4.5776	2.9388	-5.4327	78.6072	53.5800 
795.046	-0.1494	0.0757	0.8657	5.2490	-14.2822	17.0288	3.0103	-5.5206	78.6621	53.3900 
795.046	-0.1792	-0.1099	0.9082	7.0190	-3.6621	-0.5493	3.0157	-5.4932	78.7445	53.6800 
795.046	0.0469	0.0078	0.9858	7.2021	12.0239	-2.9907	3.0652	-5.3778	78.7170	53.3400 
795.092	0.0703	0.0210	1.2114	8.2397	23.9868	7.7515	3.1256	-5.1526	78.7720	53.3900 
795.092	-0.0059	-0.0156	1.4756	9.2163	21.2402	13.7939	3.1860	-4.9109	78.9148	53.2500 
795.092	-0.0273	-0.0762	1.6548	9.1553	20.2637	5.3101	3.2355	-4.6747	79.0192	53.2500 
795.092	-0.0249	-0.0381	1.7085	8.7280	15.0757	-1.4648	3.2904	-4.4714	79.0356	53.3900 
795.092	-0.0254	0.0278	1.5840	9.0332	2.7466	5.9204	3.3618	-4.3835	79.0631	53.3900 
795.124	-0.0645	-0.0518	1.3457	8.5449	2.1362	14.8926	3.4113	-4.3451	79.1949	53.5300 
795.124	-0.1162	-0.1270	1.2051	5.9814	15.7471	15.6860	3.4113	-4.1803	79.3927	53.3900 
795.124	-0.0791	-0.1396	1.1792	3.2349	27.7710	11.4136	3.3783	-3.8892	79.5795	53.2000 
795.139	0.0220	-0.0801	1.2026	0.7935	31.1279	9.4604	3.3344	-3.5596	79.7223	53.3900 
795.170	0.1250	-0.0215	1.1909	-0.7935	27.2217	10.3760	3.2904	-3.2904	79.8486	53.3400 
795.170	0.1279	0.0420	1.1548	-0.9766	20.8130	15.1367	3.2629	-3.0981	79.9860	53.5300 
795.170	0.0498	0.0083	1.1528	-0.0610	14.6484	16.4795	3.2355	-2.9443	80.1453	53.3900 
795.202	0.0347	-0.0664	1.1895	2.8687	13.2446	7.3853	3.2190	-2.8125	80.2606	53.3400 
795.202	0.1162	-0.1006	1.2734	5.7373	17.0898	-1.3428	3.2245	-2.6642	80.3046	53.3900 
795.202	0.1548	-0.0991	1.3882	8.3618	14.5874	-5.2490	3.2574	-2.5269	80.2881	53.5800 
795.233	0.1445	-0.0811	1.3906	9.5825	3.6011	-6.3477	3.3124	-2.4829	80.2551	53.2500 
795.233	0.1128	-0.0684	1.2363	9.7656	-4.6997	-7.5073	3.3673	-2.5269	80.2002	53.3900 
795.233	0.1060	-0.0483	1.1006	8.5449	-3.8452	-7.7515	3.4277	-2.5873	80.1343	53.5300 
795.233	0.1133	-0.0410	1.0322	7.0190	-0.1831	-6.9580	3.4717	-2.6147	80.0739	53.3900 
795.280	0.1274	-0.0454	0.9844	4.5776	0.7935	-6.7139	3.4937	-2.6312	80.0244	53.6800 
795.280	0.1401	-0.0400	0.9365	2.2583	1.2207	-7.4463	3.4882	-2.6477	79.9695	53.3900 
795.280	0.1670	-0.0313	0.8701	0.3662	-0.3662	-8.6060	3.4662	-2.6862	79.9036	53.3900 
795.280	0.1777	-0.0117	0.8013	-0.0610	-1.5259	-7.9956	3.4442	-2.7521	79.8322	53.3400 
795.280	0.1538	0.0005	0.7510	0.4883	-2.6245	-6.1035	3.4277	-2.8235	79.7717	53.3900 
795.327	0.1118	-0.0054	0.7095	1.8921	-4.5166	-4.3335	3.4222	-2.9059	79.7333	53.5300 
795.327	0.0864	-0.0098	0.6758	3.4180	-4.3335	-3.9673	3.4277	-2.9718	79.7003	53.3400 
795.327	0.0669	0.0127	0.6504	4.4556	-3.2959	-2.9907	3.4552	-3.0267	79.6619	53.2000 
795.327	0.0537	0.0601	0.6538	5.5542	-2.8687	0.9155	3.5101	-3.0652	79.6399	53.5300 
795.374	0.0283	0.0947	0.6650	5.6763	-3.6621	6.2256	3.5870	-3.1036	79.6344	53.3400 
795.374	0.0000	0.1094	0.6860	5.6152	-5.6152	10.6812	3.6694	-3.1531	79.6674	53.3400 
795.405	-0.0112	0.1084	0.6899	5.4321	-8.2397	13.7939	3.7518	-3.2135	79.7278	53.3900 
795.405	0.0186	0.0874	0.7070	4.7607	-8.5449	14.8315	3.8177	-3.2959	79.8102	53.2000 
795.405	0.0889	0.0415	0.7715	4.1504	-7.2021	13.6719	3.8562	-3.3893	79.9255	53.4400 
795.405	0.1655	-0.0112	0.8594	3.6011	-5.9204	12.3291	3.8672	-3.4991	80.0519	53.3400 
795.405	0.1909	-0.0630	0.9390	3.3569	-6.4697	11.5967	3.8562	-3.6200	80.1837	53.5300 
795.405	0.1416	-0.0908	0.9775	2.7466	-12.2070	12.9395	3.8232	-3.7683	80.3375	53.3400 
795.436	0.0259	-0.0708	0.9355	2.0142	-23.3765	18.4326	3.7848	-3.9771	80.5243	53.5800 
795.483	-0.0737	-0.0947	0.8013	0.5493	-30.7617	21.0571	3.7189	-4.2462	80.7550	53.3900 
795.499	-0.0591	-0.0835	0.6709	-1.7700	-25.6348	17.5781	3.6200	-4.4769	80.9747	53.5300 
795.499	0.0000	0.0181	0.6675	-3.6621	-16.2354	14.0991	3.5486	-4.6362	81.1066	53.3900 
795.499	-0.0361	0.0811	0.8188	-4.8218	-11.0474	15.2588	3.5046	-4.7241	81.2000	53.5300 
795.499	-0.0273	0.0151	0.9683	-3.9673	-7.6294	12.5732	3.4442	-4.7791	81.2988	53.3900 
795.499	0.1001	-0.0259	1.1738	-2.3193	4.4556	5.7983	3.3838	-4.7626	81.3702	53.3900 
795.499	0.1152	-0.0615	1.4551	-0.4272	13.6108	6.7139	3.3344	-4.6472	81.4471	53.2500 
795.499	0.0435	-0.0488	1.7046	-0.0610	0.6714	6.9580	3.2959	-4.5868	81.5240	53.3400 
795.499	-0.0083	0.0078	1.6382	-1.5869	-18.5547	5.3711	3.2629	-4.7076	81.5680	53.3900 
795.514	-0.0176	0.0962	1.3560	-3.6011	-21.4233	6.6528	3.2245	-4.8944	81.5790	53.5300 
795.514	0.0229	0.1675	1.1680	-5.0659	-9.7656	9.6436	3.1970	-5.0043	81.5955	53.3900 
795.530	0.0313	0.1650	1.1602	-6.4087	-0.1831	8.6060	3.1586	-5.0153	81.6174	53.5300 
795.592	-0.0088	0.1460	1.1812	-7.0801	3.5400	3.2349	3.1146	-4.9603	81.6010	53.3900 
795.592	-0.0244	0.1152	1.1797	-7.1411	7.3853	-1.9531	3.0597	-4.8615	81.5405	53.6800 
795.608	0.0015	0.0767	1.2344	-6.2256	11.9019	-4.6387	3.0048	-4.7186	81.4636	53.3900 
795.608	0.0288	0.0547	1.3179	-5.6152	11.9019	-6.4087	2.9498	-4.5758	81.3757	53.3900 
795.640	0.0132	0.0615	1.3857	-4.9438	7.8735	-6.7139	2.9004	-4.4604	81.2823	53.3400 
795.640	-0.0112	0.0615	1.4292	-4.3945	4.4556	-5.7373	2.8619	-4.3781	81.2000	53.3900 
795.640	-0.0161	0.0664	1.4268	-4.0283	1.7700	-5.4932	2.8235	-4.3231	81.1121	53.3900 
795.640	0.0039	0.1401	1.3408	-4.0283	1.9531	-5.1880	2.8015	-4.2792	81.0132	53.2000 
795.640	0.0112	0.1841	1.2231	-3.3569	6.9580	-0.7324	2.8015	-4.2023	80.9253	53.4400 
795.640	0.0288	0.1821	1.1396	-2.5024	12.2681	-0.3662	2.8125	-4.0759	80.8594	53.3400 
795.686	0.0576	0.1460	1.1016	-2.3804	16.2354	-3.2959	2.8235	-3.9166	80.7770	53.3900 
795.686	0.0996	0.1104	1.0674	-2.3804	15.0757	-8.6060	2.8235	-3.7628	80.6671	53.5800 
795.686	0.1563	0.0781	1.0371	-2.3804	12.0850	-12.9395	2.8180	-3.6530	80.5188	53.3400 
795.702	0.2051	0.0513	1.0142	-2.3804	6.5918	-14.2212	2.8070	-3.6090	80.3650	53.5300 
795.702	0.2231	0.0254	0.9824	-2.7466	1.0986	-13.5498	2.7850	-3.6310	80.2222	53.4400 
795.702	0.2046	0.0288	0.9458	-3.1738	-4.0894	-11.5967	2.7521	-3.7079	80.0958	53.3400 
795.733	0.1987	0.0347	0.9131	-2.9907	-9.2163	-9.3994	2.7246	-3.8342	79.9860	53.3400 
795.733	0.1597	0.0649	0.8794	-3.4790	-12.0850	-5.9814	2.6971	-3.9825	79.8981	53.3900 
795.733	0.1299	0.0791	0.8550	-4.0894	-14.9536	-2.9297	2.6752	-4.1528	79.8267	53.5800 
795.749	0.0977	0.0830	0.8105	-3.9063	-15.8081	-1.3428	2.6587	-4.3286	79.7717	53.2500 
795.764	0.1016	0.0835	0.7817	-3.7842	-12.6343	-2.3193	2.6422	-4.4769	79.7113	53.0600 
795.764	0.1299	0.0757	0.8115	-3.2349	-10.0708	-2.6855	2.6257	-4.6088	79.6509	53.5300 
795.764	0.1587	0.0679	0.8521	-2.8076	-10.8032	-3.3569	2.6093	-4.7461	79.5905	53.3400 
795.811	0.1606	0.0552	0.8525	-3.0518	-14.1602	-5.0659	2.5928	-4.9109	79.5190	53.3900 
795.811	0.1523	0.0547	0.8291	-3.2349	-17.8223	-7.2021	2.5763	-5.1086	79.4312	53.3400 
795.811	0.1436	0.0459	0.7954	-3.2349	-19.3481	-9.7046	2.5543	-5.3284	79.3158	53.3900 
795.811	0.1309	0.0322	0.7627	-3.3569	-19.2871	-12.3291	2.5323	-5.5426	79.1785	53.3900 
795.843	0.1167	0.0234	0.7446	-3.6011	-18.0664	-14.6484	2.5104	-5.7349	79.0247	53.3400 
795.843	0.1016	0.0254	0.7344	-3.6011	-17.3340	-17.2119	2.4884	-5.9161	78.8489	53.3400 
795.843	0.0957	0.0386	0.7114	-3.7842	-17.3950	-18.4937	2.4719	-6.0919	78.6511	53.6800 
795.874	0.0928	0.0596	0.6895	-4.3335	-16.6016	-18.0664	2.4609	-6.2622	78.4369	53.3400 
795.874	0.0771	0.0791	0.6680	-4.7607	-16.8457	-15.9912	2.4554	-6.4270	78.2391	53.0100 
795.874	0.0552	0.0952	0.6426	-5.1880	-15.2588	-12.6953	2.4554	-6.5753	78.0579	53.2000 
795.874	0.0239	0.1050	0.6250	-5.2490	-12.4512	-8.7891	2.4609	-6.6852	77.8986	53.3400 
795.905	0.0127	0.0942	0.6279	-4.8218	-7.2632	-7.8125	2.4609	-6.7401	77.7612	53.3900 
795.905	0.0381	0.1040	0.6787	-4.5166	-2.2583	-8.6060	2.4609	-6.7456	77.6239	53.3900 
795.905	0.0776	0.1245	0.7349	-3.4790	1.4648	-7.4463	2.4774	-6.7291	77.4976	53.3400 
795.921	0.0845	0.1382	0.7881	-1.5869	3.9673	-4.5166	2.5104	-6.6907	77.3932	53.3900 
795.952	-0.0098	0.1079	0.8486	1.3428	6.3477	-0.7935	2.5543	-6.6028	77.3328	53.3400 
795.952	-0.0605	0.0039	0.9546	5.0659	11.5967	-7.5073	2.5928	-6.4435	77.2778	53.2500 
795.952	0.0474	-0.0034	1.1089	7.9346	20.2026	-13.7329	2.6587	-6.2238	77.1680	53.2500 
795.999	0.1069	-0.0205	1.3184	10.3149	25.0854	-11.9019	2.7521	-5.9656	77.0691	53.3400 
795.999	0.0479	-0.0269	1.5508	10.3149	18.7988	-5.4321	2.8345	-5.7349	77.0251	53.5300 
795.999	-0.0166	-0.0664	1.6328	8.4229	8.1177	-4.4556	2.9004	-5.5920	77.0142	53.3400 
796.030	0.0020	-0.0527	1.5576	6.4087	1.0986	-6.5308	2.9388	-5.5261	76.9812	53.2000 
796.046	0.0630	-0.0049	1.4453	5.2490	-0.1831	-4.6997	2.9773	-5.5042	76.9482	53.3400 
796.046	0.1079	0.0078	1.3652	3.9673	0.6104	0.9155	3.0048	-5.4932	76.9537	53.3900 
796.046	0.0898	-0.0244	1.3174	2.5635	2.2583	4.9438	3.0048	-5.4712	77.0197	53.2000 
796.062	0.0591	-0.0669	1.3218	1.8921	2.9907	3.9063	2.9883	-5.4327	77.0966	53.3400 
796.062	0.0469	-0.0581	1.3115	1.1597	0.4272	2.5024	2.9608	-5.4053	77.1515	53.2500 
796.062	0.0654	-0.0815	1.2583	0.7324	-3.2349	2.1973	2.9279	-5.4108	77.2119	53.3900 
796.093	0.1289	-0.0581	1.1611	0.1831	-2.0142	0.1831	2.8949	-5.4382	77.2559	53.5300 
796.093	0.1714	0.0151	1.1138	0.3052	-0.3052	0.6104	2.8784	-5.4657	77.2778	53.2000 
796.124	0.1523	0.0054	1.0762	0.6714	-2.3804	3.9063	2.8674	-5.4987	77.3273	53.2000 
796.124	0.1118	-0.0073	1.0024	1.3428	-4.3945	4.5166	2.8564	-5.5481	77.3822	53.3400 
796.124	0.0493	-0.0400	0.9639	2.0142	-1.5259	3.3569	2.8455	-5.5701	77.4481	53.3900 
796.124	0.0151	-0.0503	0.9731	2.1973	5.0049	1.3428	2.8235	-5.5151	77.4976	53.2000 
796.124	0.0503	-0.0439	1.0317	2.1973	11.7798	1.4038	2.8125	-5.3943	77.5415	53.2000 
796.124	0.0947	-0.0410	1.0947	1.5869	15.3809	4.0894	2.7960	-5.2460	77.6129	53.2500 
796.156	0.1382	-0.0239	1.1245	1.1597	13.1836	8.4229	2.7740	-5.1141	77.7173	53.3400 
796.202	0.1699	-0.0068	1.0771	0.4883	8.7280	11.5967	2.7521	-5.0427	77.8546	53.3400 
796.202	0.1714	0.0010	0.9824	0.6104	5.3711	14.9536	2.7301	-5.0153	78.0139	53.2000 
796.202	0.1401	0.0156	0.9150	0.1831	3.4180	18.1885	2.7081	-5.0098	78.2007	53.5300 
796.234	0.0830	0.0103	0.8501	-0.3662	0.7324	20.3247	2.6807	-5.0153	78.4094	53.2000 
796.234	0.0566	0.0044	0.7754	-0.3052	-2.6245	20.2026	2.6477	-5.0372	78.6237	53.3900 
796.234	0.0732	-0.0093	0.6934	0.3662	-3.4180	19.1650	2.6147	-5.0812	78.8269	53.2500 
796.234	0.0962	0.0020	0.6299	1.1597	-3.1738	20.0195	2.5873	-5.1416	79.0302	53.2000 
796.234	0.1016	-0.0015	0.6021	1.7700	-3.4790	20.9351	2.5708	-5.2075	79.2444	53.3400 
796.234	0.1035	-0.0054	0.5879	2.5635	-4.8218	20.6909	2.5598	-5.2899	79.4586	53.3900 
796.265	0.1226	0.0029	0.5781	2.9297	-4.1504	19.4702	2.5543	-5.3778	79.6619	53.3400 
796.280	0.1436	0.0381	0.5991	2.2583	-2.3804	20.3857	2.5598	-5.4657	79.8541	53.3900 
796.280	0.1377	0.0596	0.6284	1.4648	-1.5259	23.0103	2.5708	-5.5371	80.0629	53.3400 
796.296	0.0923	0.0620	0.6484	0.9155	-2.6855	25.2075	2.5763	-5.5920	80.2826	53.3400 
796.296	0.0415	0.0620	0.6543	1.1597	-3.8452	27.2827	2.5763	-5.6360	80.5133	53.3400 
796.296	0.0044	0.0347	0.6621	2.1362	-1.8921	28.8086	2.5763	-5.6470	80.7660	53.2000 
796.328	0.0161	-0.0107	0.7046	3.9063	1.1597	28.1372	2.5653	-5.6250	81.0406	53.3900 
796.328	0.0591	-0.0552	0.7832	5.4321	5.2490	26.7334	2.5543	-5.5811	81.3318	53.3900 
796.328	0.1074	-0.0962	0.8970	7.3242	5.9814	26.4282	2.5488	-5.5426	81.6229	53.3400 
796.359	0.1406	-0.1372	0.9746	7.9346	2.6855	27.0996	2.5433	-5.5316	81.9360	53.3400 
796.359	0.0991	-0.1338	1.0024	6.7749	-5.4321	28.6865	2.5214	-5.5865	82.2601	53.3900 
796.359	-0.0059	-0.0649	0.9624	2.9297	-8.0566	28.5034	2.4884	-5.6525	82.5623	53.2000 
796.405	-0.0762	-0.0239	0.9780	0.3052	0.4272	26.4893	2.4500	-5.6305	82.8314	53.3400 
796.421	0.0186	0.0103	1.1245	-0.4883	18.0054	19.6533	2.4115	-5.4657	83.0347	53.3400 
796.421	0.1006	0.0610	1.3760	0.2441	30.3955	18.4326	2.3895	-5.1910	83.1995	53.2000 
796.421	0.0942	0.0166	1.6631	2.0752	30.8838	19.3481	2.3785	-4.8724	83.3862	53.3400 
796.453	0.0249	-0.0376	1.7905	1.6479	14.9536	18.6157	2.3566	-4.6637	83.5675	53.2000 
796.453	-0.0288	-0.0835	1.6602	1.8311	-1.8311	13.1836	2.3346	-4.6198	83.7158	53.3900 
796.453	0.0005	-0.0645	1.4229	1.2207	-7.9956	8.6060	2.3126	-4.6692	83.8092	53.3400 
796.453	0.0474	-0.0078	1.2563	-0.4272	-3.7231	6.8970	2.2852	-4.7021	83.8696	53.2500 
796.453	0.0356	0.0571	1.2080	-2.3193	-0.4883	6.8970	2.2632	-4.6967	83.9026	53.3900 
796.453	-0.0200	0.0898	1.1660	-4.0283	-0.2441	6.7139	2.2357	-4.6747	83.9191	53.3900 
796.485	-0.0410	0.0938	1.0957	-4.8828	3.8452	5.1880	2.2028	-4.6143	83.9191	53.3900 
796.485	-0.0161	0.0757	1.0786	-5.5542	12.0850	2.8687	2.1643	-4.4824	83.9026	53.5300 
796.485	0.0425	0.0439	1.1401	-4.8218	16.7236	0.3662	2.1149	-4.3066	83.8806	53.5300 
796.520	0.1050	0.0049	1.1846	-3.7231	13.6719	-2.3193	2.0709	-4.1583	83.8531	53.3900 
796.520	0.1426	-0.0171	1.1353	-3.4790	7.1411	-5.3101	2.0215	-4.0814	83.7982	53.3400 
796.520	0.1201	0.0679	1.0791	-4.1504	3.0518	-3.5400	1.9830	-4.0594	83.7268	53.0600 
796.520	0.0024	0.1279	1.0747	-5.6763	2.1973	5.6152	1.9556	-4.0320	83.6993	53.2500 
796.559	-0.0576	0.0732	1.1826	-6.2866	8.6670	7.0190	1.9061	-3.9276	83.7213	53.3400 
796.559	0.0181	0.0156	1.3140	-5.2490	19.6533	-1.5259	1.8457	-3.7354	83.7048	53.3900 
796.559	0.1123	0.0571	1.4482	-3.7231	24.1699	-9.8267	1.8073	-3.4937	83.6060	53.3900 
796.590	0.1689	0.0962	1.4956	-2.1362	13.4277	-10.9253	1.8018	-3.3398	83.4686	53.3400 
796.590	0.1875	0.1372	1.3735	-1.1597	-1.8311	-9.8877	1.8127	-3.3398	83.3258	53.2500 
796.590	0.2056	0.1357	1.1978	-0.9155	-9.5825	-7.9956	1.8292	-3.4552	83.1940	53.2000 
796.590	0.2275	0.1206	1.0732	-1.5259	-13.8550	-6.4087	1.8457	-3.6310	83.0786	53.3400 
796.636	0.2295	0.0908	0.9868	-2.3193	-17.3340	-5.6152	1.8457	-3.8507	82.9852	53.3900 
796.636	0.2012	0.0352	0.9180	-3.2959	-22.1558	-6.5918	1.8237	-4.1089	82.8973	53.3400 
796.636	0.1851	0.0044	0.8193	-4.8218	-25.9399	-7.5073	1.7798	-4.4110	82.8040	53.2500 
796.668	0.1572	0.0029	0.7178	-6.1035	-28.6865	-6.4087	1.7194	-4.7351	82.7271	53.5300 
796.668	0.0981	-0.0044	0.6230	-6.9580	-30.5786	-5.0049	1.6479	-5.0702	82.6611	53.3400 
796.668	0.0410	-0.0107	0.5225	-7.1411	-30.5176	-5.3101	1.5656	-5.3778	82.6007	53.3400 
796.668	0.0249	-0.0127	0.4282	-6.1646	-27.5269	-7.0801	1.4941	-5.6470	82.5293	53.2500 
796.683	0.0142	-0.0068	0.3794	-5.2490	-21.6675	-8.1787	1.4282	-5.8557	82.4414	53.3400 
796.683	0.0146	0.0220	0.3784	-3.6011	-14.2822	-6.1646	1.4008	-5.9930	82.3480	53.3400 
796.683	0.0376	0.0225	0.4404	-2.5024	-6.8970	-5.4932	1.3898	-6.0699	82.2656	53.3900 
796.699	0.0938	0.0435	0.5156	-2.6245	0.4272	-7.8125	1.3898	-6.0974	82.1613	53.1500 
796.730	0.1348	0.0947	0.6587	-1.4038	5.0049	-6.7139	1.4172	-6.0919	82.0514	53.3900 
796.730	0.1421	0.0781	0.8154	0.1221	6.1646	-8.5449	1.4502	-6.0535	81.9360	53.3400 
796.730	0.1221	0.0659	0.9229	1.1597	4.6387	-10.8643	1.4886	-6.0150	81.8097	53.5800 
796.746	0.1108	0.0532	0.9619	1.6479	-0.3662	-15.2588	1.5326	-6.0040	81.6449	53.2000 
796.746	0.1143	0.0601	0.9326	1.5259	-7.5073	-15.8691	1.5765	-6.0590	81.4636	53.2000 
796.777	0.0967	0.0640	0.8340	1.3428	-13.7329	-14.4043	1.6205	-6.1853	81.2878	53.3900 
796.793	0.0728	0.0679	0.7529	1.4038	-16.0522	-11.4136	1.6699	-6.3336	81.1340	53.5800 
796.793	-0.0317	0.0864	0.7007	2.1973	-15.4419	-5.3711	1.7303	-6.4545	81.0077	53.3400 
796.808	-0.1782	-0.0117	0.7363	3.4180	-10.2539	-0.1831	1.7688	-6.4655	80.9528	53.2000 
796.808	-0.0610	-0.0176	0.8970	5.6152	7.0801	-12.5122	1.8073	-6.3556	80.8704	53.0600 
796.808	0.1221	0.0586	1.1641	6.7139	22.1558	-5.7983	1.8842	-6.1523	80.7770	53.3900 
796.840	0.1592	0.0923	1.4541	7.3242	33.3862	-1.0986	1.9666	-5.8502	80.7495	53.2000 
796.840	0.1177	0.0957	1.6885	7.0190	30.5176	0.1221	2.0435	-5.5206	80.7440	53.3900 
796.871	0.0981	0.0396	1.6855	6.6528	15.0146	-5.3711	2.1149	-5.3119	80.7001	53.2500 
796.871	0.1050	0.0049	1.4644	7.3853	-2.1362	-6.4697	2.1808	-5.2844	80.6287	53.2000 
796.871	0.0537	-0.0835	1.2798	6.8970	-6.0425	-0.4272	2.2247	-5.3339	80.6287	53.3400 
796.871	-0.0171	-0.1899	1.1831	4.9438	-2.3193	1.4648	2.2192	-5.3394	80.7001	53.3900 
796.902	-0.0645	-0.2388	1.1167	1.4648	2.5024	-1.9531	2.1533	-5.2899	80.7770	53.3400 
796.902	-0.0693	-0.2114	1.0679	-0.6714	10.8032	-4.5166	2.0654	-5.1636	80.8319	53.3400 
796.902	-0.0415	-0.1523	1.1055	-2.8076	22.1558	-4.4556	1.9775	-4.9274	80.8594	53.3900 
796.918	-0.0396	-0.0952	1.2417	-4.2725	31.3110	-1.6479	1.8951	-4.5978	80.8813	53.2000 
796.918	-0.0273	-0.0845	1.4434	-4.0894	34.9121	-1.2817	1.8182	-4.2188	80.9033	53.2000 
796.933	0.0371	-0.0771	1.5942	-3.3569	30.7007	-2.6245	1.7523	-3.8782	80.9143	53.2500 
796.949	0.0898	-0.0898	1.5752	-2.0752	23.8647	-4.0283	1.7029	-3.6200	80.9088	53.3400 
796.949	0.1025	-0.0938	1.4556	-1.5259	16.9678	-5.2490	1.6589	-3.4387	80.8923	53.2500 
796.965	0.0962	-0.0840	1.3198	-1.6479	11.5356	-4.4556	1.6150	-3.3124	80.8759	53.3400 
796.965	0.1162	-0.0986	1.2065	-2.7466	8.6670	-3.0518	1.5546	-3.2300	80.8813	53.3900 
796.996	0.1436	-0.0830	1.1201	-5.0049	5.4932	-0.7324	1.4777	-3.1915	80.9033	53.2500 
796.996	0.1387	-0.0791	1.0220	-7.7515	0.6104	-0.2441	1.3733	-3.2025	80.9363	53.3400 
796.996	0.1445	-0.0615	0.9131	-9.7046	-0.4272	-3.3569	1.2524	-3.2355	80.9418	53.2000 
797.011	0.1606	-0.0200	0.8481	-9.2773	0.5493	-4.6387	1.1426	-3.2794	80.9143	53.3900 
797.011	0.1494	0.0044	0.8374	-7.9346	-2.0752	-2.9907	1.0547	-3.3289	80.8868	53.3900 
797.043	0.1123	-0.0015	0.7993	-5.6763	-8.1787	-1.5259	0.9833	-3.4277	80.8759	53.3400 
797.043	0.0713	-0.0171	0.7534	-2.3193	-12.2070	-1.9531	0.9448	-3.5596	80.8649	53.3400 
797.074	0.0566	-0.0112	0.7153	0.7324	-13.1836	-2.5635	0.9338	-3.6914	80.8539	53.2500 
797.074	0.0698	0.0049	0.7129	3.5400	-12.6953	-1.0376	0.9558	-3.8287	80.8374	53.3400 
797.074	0.0894	0.0054	0.7344	4.8218	-11.0474	1.7700	0.9998	-3.9606	80.8484	53.2500 
797.090	0.0889	0.0127	0.7681	5.5542	-11.1694	4.8828	1.0547	-4.0869	80.8868	53.1500 
797.090	0.0771	0.0020	0.7817	4.8828	-12.9395	7.2632	1.0931	-4.2242	80.9583	53.3400 
797.121	0.0854	-0.0190	0.7627	4.0894	-14.0381	9.0332	1.1206	-4.3781	81.0516	53.3400 
797.121	0.1147	-0.0313	0.7231	2.4414	-12.6343	10.9863	1.1206	-4.5319	81.1725	53.2500 
797.121	0.1177	-0.0322	0.6934	1.1597	-9.5825	13.6108	1.0986	-4.6692	81.3208	53.2000 
797.121	0.0938	-0.0420	0.6689	0.0610	-7.9346	15.9912	1.0657	-4.7791	81.5021	53.2000 
797.153	0.0718	-0.0469	0.6396	-1.2817	-6.4697	17.8223	1.0107	-4.8669	81.6998	53.2500 
797.153	0.0542	-0.0386	0.5996	-1.5869	-4.9438	19.5923	0.9503	-4.9219	81.9141	53.2500 
797.184	0.0259	-0.0112	0.5776	-1.8311	-3.1738	23.1934	0.8954	-4.9548	82.1448	53.2000 
797.184	-0.0151	-0.0166	0.5586	-1.0376	-2.7466	25.9399	0.8514	-4.9548	82.3975	53.1500 
797.184	-0.0396	-0.0210	0.5596	0.4883	-1.4648	26.3062	0.8075	-4.9274	82.6611	53.3900 
797.215	-0.0229	-0.0415	0.5923	2.1973	1.4038	25.1465	0.7745	-4.8779	82.9248	53.3400 
797.215	0.0171	-0.0483	0.6870	3.9673	3.9673	24.5972	0.7581	-4.8230	83.1885	53.3400 
797.215	0.0327	-0.0474	0.8081	5.4932	3.4790	24.5972	0.7635	-4.7736	83.4412	53.0600 
797.261	0.0156	0.0220	0.9482	5.4932	2.8076	25.0854	0.7965	-4.7296	83.6719	53.0100 
797.261	-0.0161	0.0029	1.1431	5.2490	3.2349	27.4658	0.8295	-4.6747	83.9191	53.0600 
797.261	0.1426	-0.0469	1.4229	5.4932	17.8833	21.1182	0.8514	-4.5374	84.1388	53.2000 
797.261	0.2124	-0.0732	1.7686	5.4932	32.7759	17.0898	0.8734	-4.2627	84.3201	53.2000 
797.293	0.1133	-0.0815	2.0581	4.8828	18.8599	14.7095	0.8954	-4.0155	84.4739	53.2000 
797.293	0.0181	-0.0513	1.8511	5.0049	-20.6909	13.9771	0.9174	-4.1089	84.6002	53.3900 
797.308	-0.0117	-0.0059	1.3652	5.1270	-29.4189	11.9629	0.9503	-4.3835	84.7046	53.2000 
797.308	0.0015	0.0532	1.1699	4.3945	-15.5640	13.5498	0.9943	-4.5483	84.7925	53.2500 
797.308	-0.0142	0.0386	1.1538	3.2349	-8.9111	12.5122	1.0272	-4.6198	84.8804	53.2000 
797.308	-0.0283	0.0361	1.0991	2.3804	-8.4839	8.4229	1.0547	-4.6747	84.9298	53.2500 
797.308	-0.0581	0.0610	1.0503	0.7935	-4.7607	10.4980	1.0767	-4.6912	84.9738	53.3400 
797.340	-0.0342	0.0054	1.0234	-0.9155	4.7607	10.2539	1.0657	-4.6307	85.0452	53.3400 
797.371	0.0508	-0.0303	1.0957	-2.9297	17.0898	3.7842	1.0217	-4.4659	85.0891	53.1500 
797.371	0.0737	-0.0225	1.2549	-3.0518	21.1792	0.6104	0.9778	-4.2517	85.0836	53.2500 
797.371	0.0894	-0.0898	1.3511	-2.2583	13.5498	-3.0518	0.9283	-4.0869	85.0671	53.2000 
797.371	0.1250	-0.0996	1.2676	-1.8311	2.5024	-5.8594	0.8789	-4.0430	85.0177	53.3400 
797.371	0.0864	-0.0186	1.1221	-2.6855	-0.5493	-5.2490	0.8405	-4.0540	84.9573	53.1500 
797.386	0.0244	0.0684	1.0601	-4.9438	0.9766	0.1831	0.8130	-4.0375	84.9078	53.2500 
797.465	-0.0122	0.0884	1.0557	-5.8594	4.8828	2.2583	0.7800	-3.9771	84.8694	53.2000 
797.480	0.0527	0.0479	1.1265	-4.9438	12.6343	-1.5869	0.7416	-3.8562	84.8199	53.3400 
797.480	0.1709	0.0259	1.2764	-3.1738	16.4795	-8.7891	0.7141	-3.7134	84.7211	53.0100 
797.480	0.2305	0.0425	1.4253	-0.4883	7.2632	-14.7095	0.7141	-3.6365	84.5618	53.2500 
797.480	0.2280	0.0747	1.3857	1.5259	-11.2915	-18.9819	0.7471	-3.7354	84.3475	53.3400 
797.480	0.1943	0.1050	1.1958	3.1128	-22.5220	-18.6157	0.8075	-3.9716	84.1113	53.3900 
797.512	0.1450	0.0854	1.0303	2.8687	-23.5596	-16.7236	0.8734	-4.2297	83.8861	53.3400 
797.512	0.1001	0.0508	0.9126	1.7090	-20.4468	-16.2964	0.9229	-4.4550	83.6829	53.5300 
797.512	0.0928	0.0249	0.8389	0.6714	-17.4561	-18.3716	0.9503	-4.6417	83.4686	53.2500 
797.512	0.1069	0.0181	0.7759	-0.6714	-15.5029	-18.7988	0.9613	-4.8120	83.2544	53.3400 
797.512	0.1304	0.0200	0.7197	-2.5635	-15.3198	-17.7612	0.9613	-4.9933	83.0457	53.0600 
797.512	0.1299	0.0254	0.6738	-3.6621	-17.8833	-15.6860	0.9503	-5.1965	82.8589	53.1500 
797.558	0.1157	0.0264	0.6240	-4.8218	-21.9727	-14.5264	0.9229	-5.4327	82.6831	53.2000 
797.558	0.1147	0.0313	0.5601	-5.3101	-24.5361	-13.8550	0.8954	-5.7074	82.5128	53.2000 
797.558	0.1260	0.0117	0.5259	-5.1270	-22.8882	-14.3433	0.8624	-5.9821	82.3480	53.1500 
797.558	0.1631	-0.0137	0.5269	-4.2725	-19.4092	-16.9678	0.8295	-6.2457	82.1832	53.2500 
797.558	0.1934	-0.0200	0.5938	-3.2959	-15.2588	-17.2729	0.7965	-6.4764	82.0074	53.2500 
797.590	0.1948	-0.0303	0.7002	-2.7466	-13.1836	-16.4795	0.7690	-6.6632	81.8481	53.2500 
797.605	0.1680	-0.0034	0.7925	-2.1973	-15.7471	-13.7939	0.7526	-6.8500	81.6943	53.2500 
797.605	0.0928	0.0283	0.8296	-2.5635	-21.3013	-11.3525	0.7471	-7.0532	81.5570	53.2000 
797.621	0.0435	0.0581	0.7646	-2.9907	-24.9634	-9.8877	0.7471	-7.2729	81.4197	53.1500 
797.621	0.0107	0.1016	0.6899	-3.2959	-24.0479	-8.1177	0.7690	-7.4872	81.2714	53.2000 
797.636	-0.0054	0.1167	0.6274	-2.7466	-20.6909	-8.1787	0.8130	-7.6630	81.1066	53.2000 
797.636	0.0112	0.1108	0.5811	-1.7700	-13.3057	-10.7422	0.8734	-7.7728	80.9253	53.0600 
797.636	0.0713	0.1240	0.5645	-0.1831	-2.3193	-14.7705	0.9503	-7.8168	80.7111	53.2500 
797.684	0.0654	0.1445	0.6323	1.8921	5.5542	-9.8267	1.0547	-7.7838	80.5243	53.1500 
797.684	-0.0313	0.0254	0.7715	4.8828	5.7983	-4.9438	1.1316	-7.6740	80.4309	53.1500 
797.684	0.0615	-0.0132	0.8926	7.2632	15.8081	-13.1226	1.1975	-7.5146	80.3156	53.0100 
797.715	0.1445	-0.0410	1.0928	9.1553	31.1279	-13.6108	1.2854	-7.2400	80.1947	53.2000 
797.715	0.1353	-0.0400	1.4907	9.7656	41.0156	-9.5215	1.3788	-6.8280	80.1068	53.2500 
797.715	0.0479	-0.0728	1.8062	9.0332	28.8696	-6.5308	1.4557	-6.4709	80.0574	53.2000 
797.730	-0.0142	-0.0903	1.7515	7.2021	7.6294	-8.8501	1.5106	-6.3062	79.9915	53.3400 
797.730	-0.0068	-0.0645	1.4463	5.9814	0.4272	-10.0708	1.5601	-6.2567	79.8981	53.3400 
797.730	0.0313	-0.0273	1.2808	5.5542	9.8267	-4.6387	1.6040	-6.1469	79.8431	53.1500 
797.746	0.0259	-0.0498	1.2808	4.3335	19.4092	0.9155	1.6315	-5.9491	79.8486	53.3900 
797.762	0.0176	-0.1055	1.2910	2.2583	25.8179	-0.3052	1.6205	-5.6744	79.8871	53.2000 
797.762	0.0547	-0.1133	1.3003	0.9155	30.0903	-3.6011	1.5930	-5.3613	79.8926	53.0600 
797.762	0.0977	-0.0830	1.3115	0.0000	31.3110	-3.5400	1.5656	-5.0427	79.8871	53.3400 
797.777	0.0991	-0.0557	1.3511	0.4883	31.4941	0.4272	1.5436	-4.7241	79.9036	53.2000 
797.793	0.0537	-0.0908	1.4512	1.8921	27.4658	3.5400	1.5271	-4.4275	79.9640	53.2000 
797.808	0.0518	-0.1206	1.4897	3.3569	23.0103	1.4038	1.5216	-4.1803	80.0189	53.3900 
797.808	0.0962	-0.1172	1.4551	4.8828	21.1182	-2.6855	1.5271	-3.9606	80.0299	53.2000 
797.840	0.1353	-0.0786	1.3550	6.3477	17.0898	-2.5635	1.5601	-3.7848	80.0299	53.1500 
797.871	0.1313	-0.0513	1.1987	6.5308	16.5405	0.9155	1.5985	-3.6420	80.0519	53.0600 
797.871	0.1006	-0.0547	1.1191	6.7749	21.1792	2.6245	1.6370	-3.4552	80.1013	53.3900 
797.902	0.0820	-0.0552	1.0820	6.5308	22.5220	1.4038	1.6754	-3.2355	80.1453	53.0600 
797.902	0.1016	-0.0337	1.0420	5.9204	20.0806	-1.7090	1.7139	-3.0377	80.1563	53.3900 
797.902	0.1382	-0.0005	0.9902	5.9814	15.8691	-3.2959	1.7633	-2.8949	80.1343	53.3400 
797.902	0.1660	0.0356	0.9526	6.6528	10.8643	-3.1738	1.8237	-2.8125	80.1068	53.0100 
797.902	0.1626	0.0562	0.9077	7.7515	3.9673	-0.8545	1.9061	-2.8015	80.0793	53.2500 
797.902	0.1313	0.0508	0.8516	9.5825	-2.5024	1.5869	2.0105	-2.8510	80.0739	53.3400 
797.934	0.0864	0.0396	0.7900	11.0474	-5.7983	3.6621	2.1204	-2.9333	80.0848	53.1500 
797.934	0.0513	0.0156	0.7241	12.6343	-5.6152	3.4790	2.2357	-2.9993	80.1123	53.0100 
797.934	0.0430	0.0112	0.6909	13.6108	-3.4180	2.4414	2.3566	-3.0432	80.1288	53.3900 
797.965	0.0630	0.0298	0.6885	14.2822	-0.6714	3.7842	2.4939	-3.0707	80.1508	53.0600 
797.965	0.0732	0.0366	0.7002	13.8550	2.0752	8.5449	2.6312	-3.0707	80.2057	53.2000 
797.965	0.0591	0.0449	0.7148	13.6108	2.6855	15.0757	2.7631	-3.0652	80.3210	53.2500 
797.965	0.0249	0.0459	0.6963	11.9629	0.6714	21.1182	2.8784	-3.0597	80.4913	53.0600 
797.997	-0.0420	0.0474	0.6758	10.1929	-2.1973	27.2217	2.9828	-3.0542	80.7166	53.3900 
798.028	-0.0552	0.0386	0.5898	8.2397	-2.7466	26.7334	3.0597	-3.0487	80.9473	53.2000 
798.043	-0.0166	0.0474	0.5337	6.5308	0.6104	25.5737	3.1256	-3.0322	81.1670	53.1500 
798.043	0.0166	0.0454	0.5381	4.4556	3.4180	27.6489	3.1750	-3.0103	81.4032	53.3900 
798.043	0.0425	0.0093	0.5947	3.0518	5.4932	29.1748	3.1860	-2.9773	81.6724	53.3400 
798.043	0.0371	-0.0381	0.6753	1.9531	4.5166	28.8086	3.1586	-2.9498	81.9690	53.0600 
798.074	0.0366	-0.0820	0.7446	1.5259	2.3193	28.5645	3.1036	-2.9333	82.2766	53.0600 
798.106	0.0459	-0.1191	0.7974	1.4038	1.4038	27.4048	3.0377	-2.9388	82.5897	53.2000 
798.106	0.0679	-0.1255	0.8252	1.4038	2.1362	25.9399	2.9718	-2.9498	82.8864	53.1500 
798.106	0.0811	-0.1162	0.8789	1.6479	2.1362	25.1465	2.9114	-2.9498	83.1720	53.0100 
798.106	0.0713	-0.0679	0.9126	1.4648	-0.8545	25.7568	2.8619	-2.9773	83.4412	53.2500 
798.106	0.0220	0.0107	0.9131	1.0986	-3.3569	26.0010	2.8400	-3.0157	83.6829	53.1500 
798.106	-0.0981	0.0918	0.9546	0.5493	-4.3945	29.2969	2.8455	-3.0322	83.9136	53.2000 
798.137	-0.1094	0.1240	1.0513	0.4272	4.1504	25.5127	2.8619	-2.9828	84.1058	53.1500 
798.137	-0.0029	0.1855	1.2988	1.4038	20.9351	24.8413	2.8949	-2.8015	84.2871	53.3900 
798.137	0.0415	0.1245	1.6255	3.7231	25.6348	28.9917	2.9279	-2.5543	84.5288	53.2000 
798.137	0.0273	-0.0298	1.7764	6.3477	12.5122	25.3296	2.9553	-2.3895	84.7760	53.1500 
798.168	-0.0283	-0.1128	1.6069	7.3853	-6.1035	14.6484	2.9828	-2.4005	84.9463	52.9100 
798.168	-0.0542	-0.0352	1.3320	6.5918	-10.4980	8.4229	3.0157	-2.4884	85.0122	53.3400 
798.168	-0.0059	0.0396	1.2314	3.9063	-1.5259	10.0098	3.0432	-2.5104	85.0726	53.0600 
798.200	0.0288	0.0757	1.2495	0.0610	5.8594	9.7656	3.0542	-2.4609	85.1276	53.2500 
798.231	0.0259	0.0757	1.2920	-2.8076	8.4229	5.5542	3.0322	-2.3840	85.1550	53.1500 
798.231	0.0273	0.0664	1.3247	-4.1504	10.6812	-1.1597	2.9938	-2.2742	85.1166	53.2000 
798.231	0.0522	0.0454	1.3696	-4.9438	11.1084	-5.9204	2.9388	-2.1533	85.0287	53.0600 
798.231	0.0771	0.0254	1.3716	-4.3945	7.3242	-8.6670	2.8894	-2.0709	84.9188	53.2500 
798.277	0.0908	0.0181	1.3154	-3.7842	1.6479	-8.9111	2.8400	-2.0435	84.8035	53.2000 
798.277	0.0820	0.0181	1.2280	-3.2959	-2.7466	-7.6294	2.7960	-2.0709	84.6936	53.3400 
798.309	0.0601	0.0581	1.1450	-2.9907	-3.9063	-7.1411	2.7631	-2.1149	84.5837	53.2000 
798.309	0.0347	0.0889	1.1123	-3.0518	-4.7607	-4.0894	2.7466	-2.1588	84.4794	53.3400 
798.309	0.0278	0.0903	1.1094	-3.2959	-5.3101	-2.2583	2.7246	-2.2028	84.4025	53.2000 
798.309	0.0396	0.0947	1.1240	-4.1504	-6.8970	-2.3193	2.7026	-2.2632	84.3256	53.2000 
798.309	0.0659	0.0874	1.1201	-4.6997	-8.1177	-6.4087	2.6697	-2.3456	84.2212	53.0600 
798.309	0.1143	0.0908	1.1133	-4.5166	-7.6294	-11.7188	2.6367	-2.4335	84.0674	53.1500 
798.309	0.1509	0.0864	1.1064	-3.7231	-7.7515	-15.6250	2.6147	-2.5323	83.8751	53.3400 
798.340	0.1548	0.0713	1.0747	-3.1128	-11.4746	-17.2119	2.5928	-2.6642	83.6664	53.2000 
798.372	0.1333	0.0469	1.0068	-2.9297	-16.0522	-18.1885	2.5763	-2.8400	83.4467	53.2000 
798.372	0.1055	0.0425	0.9272	-2.5024	-20.4468	-17.8833	2.5598	-3.0487	83.2324	53.2000 
798.372	0.0791	0.0322	0.8384	-3.8452	-24.4751	-17.4561	2.5323	-3.2904	83.0182	53.3400 
798.372	0.0737	0.0220	0.7485	-5.0659	-26.4282	-19.1040	2.4939	-3.5541	82.7985	53.1500 
798.402	0.0830	0.0391	0.6826	-6.4697	-28.1982	-19.9585	2.4445	-3.8397	82.5623	53.1500 
798.402	0.0835	0.0635	0.6089	-7.5073	-28.6865	-20.2026	2.4060	-4.1364	82.3151	53.0600 
798.434	0.0703	0.0728	0.5522	-8.9111	-28.1372	-20.5078	2.3621	-4.4330	82.0569	53.0600 
798.434	0.0488	0.0659	0.4814	-9.0942	-25.9399	-22.5830	2.3236	-4.7021	81.7822	53.3400 
798.434	0.0322	0.0737	0.4287	-8.6670	-22.3999	-25.6348	2.2961	-4.9274	81.4691	53.0600 
798.434	0.0068	0.0737	0.4043	-8.1177	-17.9443	-25.5127	2.2852	-5.0922	81.1395	53.0600 
798.449	-0.0054	0.0610	0.3975	-5.4321	-12.7563	-25.2075	2.2906	-5.1910	80.8209	53.0600 
798.449	0.0093	0.0508	0.4443	-3.1128	-5.6152	-23.3765	2.3071	-5.2240	80.5298	53.0600 
798.480	0.0200	0.0518	0.5337	-1.5869	-1.0986	-19.5313	2.3346	-5.2185	80.2881	53.2500 
798.480	0.0371	0.0571	0.6519	-0.4883	-0.9155	-16.1743	2.3621	-5.2020	80.0903	53.0100 
798.512	0.0532	0.0718	0.7427	-0.6104	-4.4556	-12.9395	2.3895	-5.2240	79.9255	53.0600 
798.512	0.0977	0.0981	0.8076	-1.5259	-6.6528	-11.2305	2.4115	-5.2844	79.7827	53.0600 
798.512	0.1426	0.1606	0.8530	-2.6245	-8.4839	-8.6670	2.4390	-5.3833	79.6454	53.0100 
798.512	0.0767	0.1665	0.8877	-2.6245	-9.8877	-2.8687	2.4664	-5.4932	79.5465	53.2500 
798.543	-0.0171	0.0044	0.9429	0.0610	-6.2866	-8.6060	2.4719	-5.5371	79.4751	53.2500 
798.543	0.1230	0.0068	1.1021	0.9766	11.5356	-16.0522	2.4829	-5.4492	79.3268	53.1500 
798.543	0.1016	-0.0244	1.3374	2.6245	22.3389	-14.4653	2.4939	-5.2460	79.2004	53.0100 
798.543	-0.0044	-0.0020	1.5850	2.9297	18.6768	-4.8828	2.5159	-5.0098	79.1400	53.2000 
798.575	-0.0723	-0.0503	1.6890	1.4038	9.3994	-2.5635	2.5104	-4.8560	79.1290	53.1500 
798.575	-0.0410	-0.0010	1.6392	-0.1831	3.4180	-3.3569	2.4994	-4.7626	79.1016	53.2500 
798.575	0.0190	0.0303	1.5220	-0.6104	-1.9531	1.7090	2.4829	-4.7406	79.0961	53.3400 
798.605	0.0381	0.0215	1.4180	-1.2207	-2.8076	10.1318	2.4609	-4.7571	79.1730	53.0600 
798.605	0.0063	-0.0449	1.3369	-2.0752	2.7466	13.2446	2.4115	-4.7296	79.3048	53.0600 
798.605	-0.0249	-0.0957	1.3208	-3.1738	14.5874	11.1084	2.3346	-4.5868	79.4476	53.2000 
798.621	-0.0264	-0.1357	1.3784	-3.1738	25.6348	5.9204	2.2467	-4.3231	79.5575	53.2000 
798.621	0.0063	-0.1201	1.4116	-2.3193	29.8462	2.5024	2.1753	-4.0100	79.6289	53.2000 
798.653	0.0283	-0.0635	1.4185	-1.5259	29.6021	4.8218	2.1204	-3.6969	79.6948	53.1500 
798.653	0.0332	-0.0674	1.4155	-0.5493	24.3530	9.8267	2.0764	-3.4277	79.8047	53.2000 
798.683	0.0815	-0.0527	1.3633	0.9155	21.0571	9.7656	2.0490	-3.2135	79.9200	53.0600 
798.683	0.1563	-0.0239	1.3237	2.4414	18.9209	5.7373	2.0435	-3.0377	79.9969	53.0600 
798.715	0.1304	-0.0093	1.3027	4.6387	11.2915	8.2397	2.0709	-2.9279	80.0739	53.0600 
798.715	0.0952	-0.0591	1.2266	6.1646	4.9438	4.5776	2.0984	-2.8729	80.1398	53.0600 
798.715	0.0928	-0.0762	1.1201	6.8359	2.5024	-0.2441	2.1313	-2.8619	80.1672	53.3900 
798.715	0.0815	-0.0825	1.0522	6.7139	3.7231	-3.1738	2.1643	-2.8345	80.1563	53.2500 
798.746	0.1060	-0.0728	1.0137	6.4087	4.2725	-4.7607	2.1918	-2.8070	80.1288	52.8600 
798.762	0.1079	-0.0781	0.9648	6.3477	3.6621	-5.7373	2.2192	-2.7905	80.0958	53.0600 
798.762	0.1094	-0.0718	0.9302	6.0425	2.0752	-5.9814	2.2412	-2.7850	80.0519	53.0600 
798.762	0.1123	-0.0527	0.8975	5.3711	0.4272	-5.2490	2.2632	-2.8015	80.0134	53.1500 
798.762	0.1021	-0.0288	0.8354	4.8828	-2.3193	-4.0283	2.2906	-2.8455	79.9750	53.2000 
798.778	0.0830	0.0073	0.7666	3.9673	-3.6621	-1.1597	2.3181	-2.9004	79.9475	53.0100 
798.778	0.0391	0.0278	0.6978	3.7842	-4.2114	1.8921	2.3566	-2.9443	79.9420	53.2000 
798.809	-0.0039	0.0547	0.6289	3.1738	-3.8452	5.9204	2.4005	-2.9773	79.9530	53.0100 
798.809	-0.0342	0.0752	0.5718	3.0518	-2.0142	9.1553	2.4500	-2.9718	79.9805	53.1500 
798.840	-0.0337	0.0840	0.5332	3.1738	0.4272	12.3291	2.5159	-2.9443	80.0299	53.0600 
798.840	-0.0229	0.0840	0.5269	3.3569	2.6855	15.2588	2.5818	-2.9004	80.1123	53.0600 
798.840	0.0039	0.0864	0.5356	3.4180	5.2490	17.7002	2.6532	-2.8455	80.2167	53.1500 
798.840	0.0322	0.0752	0.5742	3.5400	6.8359	20.1416	2.7081	-2.7905	80.3650	53.3400 
798.840	0.0698	0.0649	0.6255	3.4790	7.0801	21.0571	2.7521	-2.7521	80.5353	53.0600 
798.887	0.0874	0.0410	0.6802	3.4180	5.7373	21.9727	2.7850	-2.7246	80.7275	53.2500 
798.919	0.0854	-0.0049	0.7188	2.9297	2.8076	21.3623	2.7905	-2.7246	80.9363	53.1500 
798.919	0.0850	-0.0391	0.7437	2.6855	0.9766	19.8364	2.7740	-2.7466	81.1395	53.1500 
798.919	0.0771	-0.0801	0.7764	2.3804	-0.1221	19.1040	2.7466	-2.7686	81.3428	53.2500 
798.919	0.0630	-0.1060	0.7866	2.5635	-2.1973	18.3716	2.7026	-2.8125	81.5515	53.2000 
798.919	0.0220	-0.1279	0.7847	2.6245	-4.7607	16.4185	2.6532	-2.8564	81.7493	53.2500 
798.919	0.0034	-0.1328	0.7671	2.8687	-6.7749	15.7471	2.5983	-2.9169	81.9415	53.0100 
798.950	-0.0049	-0.1094	0.7471	2.5024	-6.9580	16.9067	2.5488	-2.9773	82.1283	53.2500 
798.950	-0.0576	-0.0371	0.7505	1.4038	-5.3101	17.8223	2.5104	-3.0103	82.3041	53.0600 
798.950	-0.1675	0.0195	0.8394	-0.3052	-2.8687	21.1792	2.4994	-2.9773	82.4634	53.0100 
798.981	-0.0767	-0.0210	0.9707	-0.7324	8.9111	13.9160	2.4664	-2.8729	82.5952	53.1500 
798.981	0.1279	0.0288	1.2197	-0.6104	23.6816	10.5591	2.4445	-2.6807	82.6831	53.0600 
799.012	0.1587	0.0137	1.6406	0.0000	31.5552	16.2964	2.4225	-2.4005	82.8149	53.0100 
799.012	0.0493	-0.0728	2.0566	0.6714	23.2544	15.9912	2.3950	-2.1478	82.9742	53.0600 
799.012	-0.0444	-0.1211	2.0103	0.9155	-0.5493	4.0894	2.3676	-2.0709	83.0402	53.2000 
799.012	-0.0229	-0.0381	1.5684	0.7935	-15.1978	-6.5918	2.3511	-2.1808	82.9742	53.2000 
799.012	0.0684	0.1001	1.2813	0.8545	-6.6528	-2.3193	2.3676	-2.2742	82.8809	53.2000 
799.044	0.0630	0.1152	1.2485	0.3662	3.1738	4.7607	2.3895	-2.2687	82.8589	53.0600 
799.044	-0.0337	0.0962	1.2207	-0.4272	4.5776	3.8452	2.4005	-2.2137	82.8534	53.2000 
799.044	-0.0488	0.0815	1.1665	-0.9155	7.2021	-2.0142	2.4005	-2.1259	82.7930	53.0600 
799.090	0.0386	0.1133	1.1572	-1.8921	12.2681	-4.2114	2.4060	-2.0050	82.6996	53.1500 
799.090	0.1030	0.1333	1.2246	-2.1973	13.4888	0.9155	2.4060	-1.8842	82.6447	53.0600 
799.090	0.1001	0.0918	1.3198	-2.3804	9.1553	5.5542	2.3895	-1.7963	82.6501	53.0600 
799.121	0.0947	0.0371	1.3770	-2.0752	2.1973	4.3335	2.3621	-1.7743	82.6721	53.2000 
799.121	0.1030	0.0059	1.3486	-2.3804	-3.1738	0.5493	2.3291	-1.8073	82.6611	53.1500 
799.121	0.1274	0.0303	1.2778	-2.8687	-7.3853	-1.7090	2.2906	-1.8896	82.6172	53.0600 
799.121	0.1255	0.0747	1.2051	-3.7842	-9.1553	0.0000	2.2577	-2.0050	82.5732	53.0100 
799.121	0.0928	0.1147	1.1582	-5.1880	-10.8643	3.2349	2.2302	-2.1313	82.5403	53.1500 
799.152	0.0630	0.1138	1.1182	-6.9580	-12.4512	4.3945	2.1863	-2.2632	82.5238	53.2000 
799.152	0.0718	0.0977	1.0938	-7.0190	-11.3525	1.4038	2.1313	-2.3895	82.4908	53.2500 
799.152	0.1108	0.0923	1.0879	-5.6152	-10.8643	-3.8452	2.0874	-2.5104	82.4139	53.1500 
799.168	0.1357	0.0913	1.0410	-4.5166	-13.8550	-6.4697	2.0544	-2.6697	82.3041	53.1500 
799.184	0.1338	0.0786	0.9736	-2.8687	-18.1274	-7.3853	2.0380	-2.8619	82.1832	52.9100 
799.184	0.0967	0.0908	0.8618	-1.0376	-21.3623	-7.2021	2.0490	-3.0927	82.0569	53.2000 
799.184	0.0415	0.0762	0.7432	0.1831	-23.2544	-6.5308	2.0709	-3.3289	81.9305	53.0100 
799.215	-0.0073	0.0425	0.6025	1.1597	-20.7520	-8.5449	2.1039	-3.5211	81.7932	52.8600 
799.230	-0.0313	0.0171	0.4863	0.5493	-15.0146	-11.0474	2.1204	-3.6420	81.6394	53.2000 
799.230	-0.0308	0.0078	0.4141	0.0610	-8.1177	-12.5122	2.1313	-3.6914	81.4746	53.0600 
799.230	-0.0215	0.0156	0.3662	-1.0376	-3.1128	-11.9019	2.1313	-3.6859	81.3098	53.0100 
799.262	0.0005	0.0249	0.3545	-2.2583	0.4272	-11.5967	2.1313	-3.6584	81.1505	53.3400 
799.262	0.0215	0.0342	0.3628	-2.8076	3.4790	-11.6577	2.1259	-3.6200	80.9912	53.1500 
799.293	0.0679	0.0391	0.4004	-2.9297	7.1411	-12.4512	2.1259	-3.5870	80.8319	53.0100 
799.293	0.1177	0.0430	0.4634	-3.1738	9.1553	-11.7188	2.1204	-3.5596	80.6836	53.3900 
799.293	0.1182	0.0645	0.5723	-3.1738	8.4229	-9.5825	2.1204	-3.5156	80.5463	53.1500 
799.324	0.1523	0.0879	0.6567	-3.2349	9.5825	-10.2539	2.1204	-3.4772	80.4144	53.3400 
799.324	0.1616	0.1040	0.7778	-2.5024	8.1177	-8.8501	2.1313	-3.4387	80.2826	53.5300 
799.340	0.1499	0.1162	0.8799	-1.5869	3.4790	-7.8125	2.1478	-3.4277	80.1672	53.2000 
799.340	0.1270	0.1284	0.9512	-0.5493	-2.0752	-6.8359	2.1753	-3.4662	80.0519	53.1500 
799.340	0.1094	0.1221	0.9761	0.8545	-5.4321	-6.1035	2.2137	-3.5321	79.9420	53.0100 
799.340	0.1226	0.1201	0.9683	1.7700	-5.7983	-6.8970	2.2632	-3.6090	79.8267	53.0600 
799.372	0.1484	0.1440	0.9565	2.1973	-6.2866	-5.1270	2.3236	-3.6914	79.7223	53.2000 
799.372	0.1338	0.1582	0.9175	3.1738	-8.6670	-0.1221	2.3895	-3.8068	79.6564	53.3900 
799.372	0.0015	0.0918	0.9048	4.6387	-12.0239	8.8501	2.4609	-3.9111	79.6729	53.0600 
799.403	0.0200	0.0415	0.9141	5.3101	-6.7139	1.5869	2.5104	-3.9771	79.6783	53.0600 
799.403	0.0874	0.0884	0.9937	6.4087	-1.7700	6.4087	2.5818	-4.0100	79.6893	53.0600 
799.434	0.1035	0.0996	1.1216	7.9346	6.8359	12.0850	2.6642	-3.9771	79.7662	53.0600 
799.434	0.0640	0.0786	1.3062	8.5449	15.8081	18.7988	2.7466	-3.8507	79.9146	53.0100 
799.434	0.0234	-0.0083	1.5469	9.2163	25.6958	19.5313	2.8070	-3.6090	80.1013	53.0600 
799.434	0.0366	-0.0801	1.8115	8.4839	28.0151	15.8691	2.8564	-3.3234	80.2881	53.2000 
799.465	0.0903	-0.1025	1.8818	7.0801	20.4468	9.3384	2.8894	-3.0927	80.4089	53.3400 
799.480	0.0415	-0.1147	1.7056	5.1880	9.7046	9.5215	2.9004	-2.9773	80.5078	53.0600 
799.480	-0.0596	-0.1958	1.6040	1.4038	16.2964	12.5122	2.8674	-2.8180	80.6561	53.2500 
799.512	-0.0649	-0.2837	1.6177	-2.0142	25.2075	9.7656	2.7740	-2.5708	80.8099	53.1500 
799.512	0.0034	-0.3008	1.6118	-4.0283	30.8838	4.3945	2.6532	-2.2577	80.9253	53.0600 
799.512	0.0571	-0.2554	1.5522	-5.6763	30.8228	2.8687	2.5269	-1.9501	81.0077	53.0100 
799.544	0.0889	-0.1943	1.4180	-7.0801	26.4282	4.3945	2.3950	-1.6919	81.0846	53.1500 
799.544	0.1108	-0.1377	1.2837	-8.3618	23.9868	6.0425	2.2632	-1.4667	81.1670	53.2000 
799.544	0.1206	-0.0581	1.2124	-8.2397	20.0195	6.1646	2.1423	-1.2799	81.2384	53.1500 
799.544	0.1392	-0.0034	1.1514	-7.1411	15.9302	6.5308	2.0490	-1.1481	81.2988	53.0600 
799.574	0.1694	0.0142	1.0947	-5.9204	13.1226	4.6387	1.9720	-1.0602	81.3373	53.3400 
799.574	0.1909	0.0132	1.0713	-3.7842	10.8643	1.2207	1.9226	-0.9943	81.3483	53.0600 
799.574	0.2021	-0.0073	1.0591	-0.4883	5.1270	-1.8311	1.8951	-0.9888	81.3263	53.0600 
799.606	0.1704	0.0005	1.0146	2.0752	-1.8921	-3.2959	1.8951	-1.0382	81.2823	53.0100 
799.606	0.0928	-0.0190	0.9648	4.8828	-8.3008	-4.3335	1.9226	-1.1426	81.2274	53.2500 
799.606	0.0664	-0.0317	0.8809	7.0801	-10.8032	-8.0566	1.9666	-1.2634	81.1450	53.0600 
799.637	0.0679	-0.0234	0.8027	9.3384	-7.6904	-10.5591	2.0325	-1.3678	81.0352	53.0600 
799.637	0.0806	0.0015	0.7842	10.7422	-3.7231	-9.5825	2.1259	-1.4337	80.9198	53.0600 
799.637	0.0806	0.0176	0.7700	11.5967	-0.1221	-6.8359	2.2302	-1.4722	80.8264	53.0600 
799.668	0.0830	0.0303	0.7729	11.7188	1.2207	-3.7842	2.3456	-1.4832	80.7550	53.2000 
799.668	0.0903	0.0356	0.7646	11.4746	2.8687	-0.8545	2.4664	-1.4886	80.7166	53.2000 
799.668	0.1074	0.0391	0.7461	11.1084	3.6011	3.0518	2.5763	-1.4941	80.7111	53.0600 
799.668	0.1182	0.0317	0.7271	9.8267	2.8687	7.3853	2.6752	-1.5106	80.7495	53.0600 
799.684	0.1074	0.0210	0.6978	8.7891	1.4648	13.0005	2.7576	-1.5436	80.8484	53.2000 
799.699	0.0903	0.0029	0.6675	8.0566	0.3052	17.4561	2.8235	-1.5820	80.9967	53.3400 
799.730	0.0752	-0.0112	0.6489	6.8970	0.0000	22.2778	2.8674	-1.6205	81.1945	53.2500 
799.746	0.0884	-0.0361	0.6587	5.3101	2.0142	26.0010	2.8839	-1.6589	81.4417	53.1500 
799.746	0.1094	-0.0635	0.7065	4.3945	4.8828	28.1372	2.8784	-1.6699	81.7273	53.0600 
799.746	0.1436	-0.0854	0.7920	3.4180	6.5308	28.8696	2.8564	-1.6754	82.0294	53.2000 
799.746	0.1567	-0.0864	0.8613	2.5024	3.9063	29.2358	2.8235	-1.6919	82.3315	53.0100 
799.762	0.1611	-0.0923	0.8936	1.6479	0.4883	29.8462	2.7795	-1.7413	82.6337	53.3400 
799.762	0.1626	-0.1006	0.9102	1.3428	-3.4790	28.7476	2.7356	-1.8347	82.9303	53.0100 
799.777	0.1689	-0.1074	0.9258	0.8545	-5.5542	27.4048	2.6807	-1.9501	83.2104	53.2500 
799.777	0.1831	-0.1079	0.9453	0.9155	-6.6528	26.0620	2.6257	-2.0819	83.4741	53.1500 
799.777	0.1875	-0.1055	0.9639	1.5259	-8.1177	25.0244	2.5763	-2.2192	83.7268	53.2500 
799.793	0.1851	-0.1050	0.9731	2.7466	-9.0942	22.2168	2.5433	-2.3676	83.9520	53.0600 
799.825	0.1934	-0.1045	0.9888	4.3335	-10.0098	18.8599	2.5159	-2.5269	84.1443	53.0600 
799.825	0.1953	-0.1104	1.0020	5.6763	-11.9019	16.7847	2.5104	-2.6971	84.3091	53.1500 
799.825	0.2075	-0.1362	1.0107	6.8359	-15.3198	15.1978	2.5104	-2.9004	84.4629	53.0100 
799.856	0.2202	-0.1572	1.0181	6.9580	-18.4937	14.9536	2.5049	-3.1366	84.6112	53.0100 
799.856	0.2373	-0.1689	1.0190	6.1646	-21.1792	15.0146	2.4939	-3.4058	84.7650	53.0100 
799.887	0.2534	-0.1699	1.0469	5.0659	-23.3765	14.2212	2.4719	-3.6969	84.9078	53.1500 
799.887	0.2134	-0.0449	1.0786	3.2959	-24.7803	12.7563	2.4554	-3.9990	85.0122	52.9100 
799.887	0.0210	0.1338	1.1987	1.9531	-23.0713	17.7612	2.4829	-4.2407	85.1001	53.0600 
799.934	-0.0107	0.0371	1.3945	3.8452	-11.0474	14.7095	2.5049	-4.3616	85.1935	53.0100 
799.934	0.1157	-0.0352	1.5903	6.9580	1.6479	5.6763	2.5433	-4.3671	85.2319	53.1500 
799.934	0.1216	-0.0454	1.8379	10.6812	-0.0610	3.4790	2.6147	-4.3506	85.2319	53.0100 
799.949	-0.0308	-0.0786	1.9224	11.7798	-23.3765	8.1787	2.6971	-4.4989	85.2594	52.8600 
799.981	-0.1055	-0.1172	1.6162	10.8032	-39.4897	0.1221	2.7740	-4.8230	85.2484	53.0600 
799.981	-0.0474	-0.0210	1.2788	9.8877	-28.9307	-11.3525	2.8564	-5.0977	85.1111	53.0100 
799.981	-0.0513	0.1074	1.1743	7.9346	-13.9160	-17.5171	2.9608	-5.2130	84.8694	53.0600 
799.981	-0.1255	0.1309	1.0840	5.4932	-6.7139	-22.5830	3.0762	-5.2240	84.5618	52.9100 
799.981	-0.1411	0.1460	0.9590	2.9297	-0.6714	-28.0762	3.1750	-5.1636	84.1827	53.0600 
799.996	-0.1143	0.1802	0.8750	1.3428	9.1553	-27.6489	3.2794	-5.0153	83.7817	53.1500 
799.996	-0.0596	0.1724	0.8828	0.0000	19.3481	-22.3389	3.3563	-4.7791	83.4412	53.0600 
799.996	0.0107	0.1543	0.9780	0.0000	24.1089	-17.3950	3.4113	-4.5099	83.1830	52.9100 
800.027	0.0459	0.1226	1.1074	0.3662	22.0947	-12.5732	3.4442	-4.2627	82.9907	53.1500 
800.027	0.0308	0.0493	1.2231	1.0986	15.3809	-10.9863	3.4607	-4.0649	82.8424	53.1500 
800.027	0.0229	0.0117	1.2461	0.9766	6.4697	-12.6343	3.4717	-3.9551	82.6941	53.0100 
800.043	0.0024	0.0410	1.1987	0.0610	0.0610	-12.2070	3.4717	-3.9111	82.5293	53.1500 
800.074	-0.0186	0.0859	1.1421	-1.8311	-0.6714	-8.9111	3.4662	-3.8837	82.3810	53.0100 
800.074	-0.0332	0.0996	1.0977	-3.7231	1.1597	-7.4463	3.4497	-3.8397	82.2491	53.0600 
800.074	-0.0142	0.1084	1.0596	-5.6763	4.2725	-8.0566	3.4222	-3.7738	82.1063	53.2000 
800.074	0.0181	0.1152	1.0420	-7.0190	7.0801	-9.0942	3.3783	-3.6859	81.9635	53.0600 
800.090	0.0483	0.1118	1.0186	-7.3853	7.8735	-10.3149	3.3289	-3.5980	81.8152	53.0100 
800.090	0.0776	0.1030	0.9878	-7.3853	6.1035	-11.4746	3.2794	-3.5266	81.6559	53.0600 
800.090	0.0967	0.1099	0.9292	-6.2866	4.1504	-10.5591	3.2410	-3.4937	81.4966	53.0100 
800.137	0.1079	0.1094	0.8896	-5.1880	2.5635	-8.2397	3.2080	-3.4827	81.3593	52.8600 
800.137	0.1040	0.0991	0.8433	-3.3569	2.1362	-7.4463	3.1970	-3.4772	81.2384	53.0600 
800.168	0.1099	0.0859	0.8154	-2.0142	3.0518	-7.6904	3.1915	-3.4717	81.1176	53.0100 
800.168	0.1250	0.0776	0.8032	0.1221	4.3945	-8.8501	3.2025	-3.4607	80.9912	52.9100 
800.184	0.1401	0.0518	0.7925	2.0142	5.4932	-10.1318	3.2300	-3.4387	80.8594	52.9100 
800.184	0.1563	0.0322	0.7983	3.1738	5.9814	-11.6577	3.2629	-3.4167	80.7275	53.1500 
800.200	0.1514	0.0352	0.8164	3.9063	5.7983	-13.3667	3.3014	-3.3948	80.5792	53.0100 
800.200	0.1426	0.0342	0.8208	4.4556	4.8218	-13.4888	3.3453	-3.3728	80.4199	53.2000 
800.231	0.1367	0.0400	0.8223	3.9063	3.6621	-13.2446	3.3838	-3.3618	80.2661	53.0100 
800.231	0.1211	0.0474	0.8408	3.2959	2.0142	-12.7563	3.4277	-3.3563	80.1123	53.1500 
800.231	0.1147	0.0654	0.8262	2.2583	0.1831	-13.5498	3.4607	-3.3728	79.9475	53.0600 
800.231	0.1187	0.0947	0.8105	1.4038	0.8545	-14.7095	3.4991	-3.3893	79.7717	53.1500 
800.262	0.1353	0.1050	0.8350	0.2441	2.6855	-16.1743	3.5376	-3.3948	79.5740	53.0100 
800.262	0.1328	0.0981	0.8765	0.3052	3.5400	-17.4561	3.5651	-3.3783	79.3707	53.0600 
800.262	0.1206	0.0825	0.9380	-0.2441	3.0518	-19.4092	3.5870	-3.3618	79.1510	53.0100 
800.294	0.1143	0.0635	1.0117	-0.0610	3.9063	-22.2778	3.6035	-3.3289	78.9148	52.8200 
800.294	0.1240	0.0479	1.0977	-0.1221	5.3711	-24.7803	3.6090	-3.2849	78.6621	53.1500 
800.294	0.1455	0.0503	1.2314	-0.7935	4.8218	-27.1606	3.6090	-3.2355	78.3820	53.1500 
800.340	0.1606	0.0840	1.3643	-2.3193	0.4883	-27.0386	3.6035	-3.2245	78.0963	53.0100 
800.340	0.1582	0.1270	1.4297	-5.3101	-8.0566	-24.8413	3.5760	-3.2849	77.8162	53.1500 
800.340	0.1479	0.1548	1.4009	-8.7891	-18.1274	-21.6675	3.5266	-3.4387	77.5580	53.2000 
800.340	0.1128	0.1191	1.3364	-11.1694	-24.1699	-16.1133	3.4442	-3.6749	77.3383	53.1500 
800.372	-0.0371	-0.0449	1.3765	-13.7329	-22.4609	-7.9346	3.3014	-3.8782	77.2284	52.9100 
800.372	-0.2080	-0.1733	1.5547	-15.5029	-17.3950	-8.7891	3.1036	-3.9990	77.1625	53.0600 
800.372	-0.1782	-0.1816	1.6782	-18.5547	-13.0615	-14.4653	2.8784	-4.0649	77.0581	53.0100 
800.403	-0.0439	-0.0293	1.5962	-21.0571	-9.2773	-18.5547	2.6532	-4.1199	76.8823	53.0600 
800.418	0.0146	0.1392	1.4370	-20.7520	-15.9302	-7.2021	2.4609	-4.2242	76.7450	53.0100 
800.418	-0.0459	0.1577	1.2427	-19.5923	-24.9023	7.6904	2.2906	-4.4275	76.7395	53.0600 
800.434	-0.1348	0.0991	1.0381	-18.6157	-24.5972	13.6719	2.1204	-4.6252	76.8109	52.9100 
800.434	-0.1987	-0.0063	0.8867	-17.8833	-19.4092	14.7705	1.9281	-4.7406	76.9263	53.0100 
800.434	-0.1455	-0.1284	0.7861	-14.8926	-6.2866	6.5308	1.7084	-4.7461	77.0416	52.8600 
800.434	0.0029	-0.2041	0.8286	-10.1929	11.5356	-6.0425	1.5051	-4.6417	77.0856	52.8600 
800.434	0.0962	-0.2251	0.9902	-5.4321	22.3999	-15.7471	1.3623	-4.4385	77.0197	53.0600 
800.466	0.0991	-0.2212	1.1489	-2.1362	17.2119	-18.7988	1.2744	-4.2517	76.8988	53.0600 
800.466	0.0625	-0.2085	1.1792	-0.0610	1.8921	-18.9819	1.2140	-4.1913	76.7670	53.0100 
800.466	0.0522	-0.1401	1.0762	0.0610	-8.9722	-17.7002	1.1700	-4.2517	76.6296	53.0100 
800.496	0.0503	-0.0469	0.9883	-0.5493	-10.2539	-12.7563	1.1481	-4.3451	76.5033	53.0100 
800.496	0.0498	0.0132	0.9521	-1.2207	-9.1553	-9.4604	1.1371	-4.4275	76.4044	52.8600 
800.496	0.0518	0.0327	0.9248	-1.9531	-8.8501	-8.8501	1.1316	-4.5044	76.3055	52.9100 
800.543	0.0620	0.0430	0.8984	-2.6855	-9.1553	-10.2539	1.1206	-4.5923	76.1957	53.0100 
800.543	0.0649	0.0449	0.8691	-2.5024	-12.0239	-10.8643	1.1151	-4.7021	76.0748	53.0100 
800.559	0.0513	0.0298	0.8198	-1.6479	-14.5264	-9.0942	1.1151	-4.8340	75.9705	52.9100 
800.590	0.0278	0.0063	0.7700	-0.7935	-14.5264	-7.4463	1.1096	-4.9603	75.8826	52.8600 
800.590	-0.0059	0.0029	0.7388	0.2441	-13.6108	-4.2725	1.1096	-5.0702	75.8276	53.0100 
800.590	-0.0239	-0.0220	0.6860	0.9155	-13.2446	-5.0659	1.1041	-5.1636	75.7837	52.8600 
800.590	0.0034	-0.0151	0.6113	1.5259	-7.3242	-6.8359	1.1096	-5.2185	75.7288	52.9100 
800.590	0.0415	0.0356	0.6030	2.2583	-1.1597	-7.6904	1.1426	-5.2350	75.6354	53.0100 
800.590	0.0195	0.0381	0.6357	3.2959	2.5635	-3.2349	1.1920	-5.1965	75.5804	53.0100 
800.637	-0.0088	0.0132	0.6582	4.8218	4.0283	-2.6245	1.2469	-5.1251	75.5420	52.8600 
800.637	-0.0005	-0.0034	0.6650	6.0425	6.6528	-2.4414	1.2964	-5.0372	75.5200	53.0100 
800.637	0.0444	-0.0049	0.7070	6.7139	11.0474	-0.5493	1.3513	-4.9219	75.5145	52.8600 
800.637	0.0781	-0.0220	0.7866	7.0801	13.4888	3.9063	1.4063	-4.7955	75.5585	53.0600 
800.637	0.0903	-0.0371	0.8682	6.5918	11.9019	7.3242	1.4447	-4.6747	75.6409	53.0100 
800.637	0.0962	-0.0630	0.9155	5.6152	9.2773	9.5825	1.4667	-4.5868	75.7617	53.0100 
800.653	0.1050	-0.0767	0.9512	5.1270	6.7139	10.6201	1.4777	-4.5319	75.8936	53.0100 
800.653	0.1167	-0.0801	0.9883	5.0049	4.6387	11.2915	1.4832	-4.4934	76.0309	52.8600 
800.684	0.1250	-0.0879	1.0356	5.0659	3.4790	11.1084	1.4832	-4.4769	76.1737	53.0100 
800.684	0.1318	-0.0820	1.0933	6.3477	2.6855	10.9253	1.4996	-4.4659	76.3055	52.8600 
800.716	0.1494	-0.0708	1.1499	7.6294	0.1221	10.9253	1.5326	-4.4769	76.4374	53.1500 
800.716	0.1499	-0.0708	1.1733	8.9111	-3.3569	10.9253	1.5820	-4.5209	76.5637	53.0600 
800.716	0.1572	-0.0654	1.1792	10.0708	-5.9204	12.2681	1.6425	-4.5978	76.7010	52.9100 
800.762	0.1572	-0.0688	1.1851	9.9487	-6.7139	12.5732	1.7029	-4.6857	76.8384	53.0100 
800.777	0.1479	-0.0649	1.1855	10.0098	-6.7139	12.8174	1.7633	-4.7736	76.9812	53.0100 
800.777	0.1328	-0.0610	1.2090	10.2539	-7.2021	12.8174	1.8237	-4.8615	77.1185	52.8600 
800.809	0.1372	-0.0669	1.2095	10.0708	-8.4229	13.0615	1.8842	-4.9548	77.2559	52.9100 
800.809	0.1479	-0.0752	1.1968	9.9487	-9.9487	12.6953	1.9446	-5.0647	77.3932	53.0600 
800.809	0.1509	-0.0820	1.1880	10.0708	-11.3525	13.6108	1.9940	-5.1910	77.5360	53.0600 
800.809	0.1421	-0.1113	1.1934	9.2163	-13.7329	14.4653	2.0380	-5.3394	77.6953	53.0600 
800.809	0.1255	-0.1338	1.1772	8.6060	-18.0664	13.7939	2.0654	-5.5206	77.8546	52.8600 
800.809	0.0996	-0.0752	1.1636	7.1411	-20.4468	13.1836	2.0874	-5.7239	77.9974	52.9100 
800.841	0.0425	0.0273	1.2515	4.4556	-22.1558	18.6768	2.1094	-5.9271	78.1458	53.0100 
800.841	-0.0073	0.0659	1.3428	2.8076	-23.6816	26.1230	2.1259	-6.1359	78.3490	53.0600 
800.872	0.0059	0.0376	1.3579	2.0752	-21.6675	26.8555	2.1204	-6.3336	78.5852	52.8600 
800.887	0.0107	0.0112	1.3433	2.8687	-18.3105	20.9961	2.1094	-6.4984	78.7830	52.9100 
800.887	-0.0908	0.0361	1.2412	4.0283	-21.3013	16.4185	2.1259	-6.6522	78.9203	52.9100 
800.887	-0.1841	0.0728	1.0625	4.9438	-17.6392	11.4136	2.1753	-6.7566	78.9862	53.0100 
800.887	-0.2012	0.1479	0.9878	4.5166	-9.7656	11.9019	2.2522	-6.7731	79.0082	53.0600 
800.903	-0.1479	0.1318	1.0010	4.0894	-3.9673	7.3242	2.3291	-6.7346	79.0137	52.8600 
800.903	-0.0347	0.1348	1.0352	3.2349	0.9766	-0.6104	2.3950	-6.6797	78.9587	53.1500 
800.903	0.0508	0.1758	1.1362	2.8687	2.5024	-3.7842	2.4719	-6.6302	78.8654	52.8200 
800.934	0.0806	0.1855	1.2412	2.2583	-1.1597	0.6104	2.5323	-6.6138	78.8049	52.8600 
800.934	0.0498	0.1606	1.2490	1.4648	-5.3101	6.7139	2.5763	-6.6357	78.8049	52.9100 
800.934	0.0332	0.1245	1.1987	1.5869	-7.0190	7.0190	2.6093	-6.6797	78.8269	53.0600 
800.981	0.0547	0.1050	1.1333	1.5869	-5.9204	6.4087	2.6367	-6.7236	78.8434	52.8600 
800.981	0.0410	0.0801	1.0640	1.3428	-2.4414	7.0190	2.6532	-6.7346	78.8763	52.8200 
801.012	0.0239	0.0415	1.0088	0.5493	-0.1831	6.7139	2.6532	-6.7126	78.9148	52.9100 
801.012	0.0439	0.0225	0.9590	-0.7324	0.0610	6.7749	2.6367	-6.6907	78.9587	52.8600 
801.012	0.0713	0.0254	0.9004	-2.9297	0.0000	8.5449	2.5983	-6.6742	79.0192	52.9100 
801.012	0.0796	0.0112	0.8364	-5.0659	-1.5259	11.1694	2.5269	-6.6852	79.1071	52.8200 
801.012	0.0771	0.0068	0.7769	-6.8970	-2.1362	12.1460	2.4335	-6.7017	79.2169	52.6700 
801.012	0.0869	0.0039	0.7183	-8.3618	-3.1738	12.0239	2.3291	-6.7346	79.3213	52.9100 
801.059	0.0933	0.0186	0.6597	-8.7280	-4.0283	11.2305	2.2247	-6.7841	79.4147	53.2000 
801.059	0.0972	0.0327	0.6328	-8.5449	-3.9673	11.2305	2.1259	-6.8390	79.5026	52.8600 
801.059	0.1001	0.0381	0.5898	-7.9956	-4.2725	12.0239	2.0435	-6.8994	79.5905	53.0600 
801.074	0.0898	0.0303	0.5635	-6.7139	-4.5776	12.2070	1.9666	-6.9598	79.6838	52.8600 
801.074	0.0703	0.0181	0.5444	-5.1880	-4.1504	10.9863	1.8951	-7.0093	79.7717	53.0100 
801.074	0.0747	0.0117	0.5547	-3.2349	-1.2207	9.5825	1.8402	-7.0367	79.8541	52.9100 
801.090	0.0796	0.0073	0.5957	-1.8311	2.1362	8.5449	1.8018	-7.0313	79.9255	52.8200 
801.090	0.0947	0.0068	0.6816	-0.1221	4.8218	7.6904	1.7798	-6.9983	79.9915	53.0100 
801.090	0.1069	0.0288	0.7803	1.5869	5.6152	7.0801	1.7798	-6.9489	80.0409	53.0100 
801.121	0.1133	0.0620	0.8667	3.1738	4.5776	6.4087	1.8127	-6.9049	80.0793	53.0100 
801.137	0.1089	0.1016	0.9395	3.9673	3.6011	6.1646	1.8622	-6.8665	80.1013	53.0100 
801.137	0.1147	0.1260	0.9819	5.0659	3.4180	4.6997	1.9391	-6.8390	80.1013	52.9100 
801.137	0.1265	0.1572	1.0298	5.9204	4.3945	2.3804	2.0325	-6.8005	80.0739	53.0100 
801.184	0.1479	0.1597	1.0796	6.3477	4.8218	1.8311	2.1313	-6.7621	80.0409	53.0100 
801.184	0.1685	0.1470	1.1089	6.4697	4.5776	1.5259	2.2302	-6.7291	80.0134	52.8600 
801.184	0.1543	0.1353	1.1235	6.1035	3.3569	2.6245	2.3181	-6.7017	79.9915	52.8600 
801.184	0.1528	0.0566	1.1235	4.8828	-1.1597	0.5493	2.3730	-6.7072	79.9750	52.9100 
801.215	0.1973	0.0313	1.0825	3.4790	-1.2817	-4.2725	2.4115	-6.7401	79.9200	52.8600 
801.215	0.2417	0.0112	1.1152	2.6245	-0.7324	-6.8970	2.4390	-6.7731	79.8376	52.7200 
801.215	0.2251	-0.0190	1.1909	2.2583	-3.5400	-7.3853	2.4500	-6.8225	79.7552	53.0100 
801.246	0.1611	-0.0479	1.2178	1.5869	-7.1411	-8.4839	2.4500	-6.8939	79.6729	52.8200 
801.246	0.1040	-0.0381	1.2148	-0.5493	-8.3618	-10.5591	2.4335	-6.9598	79.5630	53.0100 
801.262	0.0889	-0.0020	1.1943	-2.3804	-3.1738	-10.9253	2.4115	-6.9873	79.4421	53.0600 
801.262	0.1011	0.0640	1.2153	-4.5166	3.7842	-10.9253	2.3840	-6.9489	79.3048	53.0100 
801.262	0.1138	0.1284	1.2686	-6.2866	5.4321	-9.9487	2.3511	-6.8774	79.1675	52.8200 
801.277	0.1318	0.1660	1.2563	-7.0801	0.5493	-10.0098	2.3236	-6.8500	79.0247	52.8200 
801.277	0.1797	0.1592	1.2129	-7.3242	-3.7842	-11.7188	2.2961	-6.8829	78.8654	52.8200 
801.293	0.2007	0.1064	1.2793	-6.0425	-5.9204	-12.7563	2.2687	-6.9434	78.7061	52.8600 
801.309	0.1274	-0.0068	1.4473	-3.7842	-14.6484	-13.6719	2.2302	-7.0477	78.5577	52.9100 
801.340	0.0366	-0.0923	1.4966	-2.8076	-33.4473	-16.7847	2.1918	-7.3004	78.3929	53.0100 
801.340	-0.0020	-0.0869	1.3477	-4.8218	-41.6260	-17.7002	2.1423	-7.6575	78.2117	52.9100 
801.387	0.0000	0.0288	1.1377	-7.3853	-33.0811	-13.9771	2.0819	-7.9596	78.0359	52.8600 
801.387	-0.0039	0.0986	0.9580	-7.8735	-17.1509	-8.3008	2.0380	-8.1244	77.8876	52.9100 
801.387	-0.0532	0.0747	0.8945	-7.2632	-2.0752	-6.7139	1.9995	-8.1134	77.7722	52.9100 
801.419	-0.0742	0.0186	0.8701	-6.7139	5.3101	-9.4604	1.9446	-7.9980	77.6514	53.0100 
801.419	-0.0396	-0.0239	0.8369	-6.2256	6.2256	-10.1929	1.8787	-7.8607	77.5415	52.8600 
801.419	-0.0112	-0.0854	0.8096	-6.1035	3.9063	-6.5918	1.7908	-7.7618	77.4921	52.9100 
801.419	0.0005	-0.1646	0.8369	-6.6528	2.5024	-3.2349	1.6534	-7.6904	77.5031	52.6700 
801.419	0.0259	-0.2461	0.9136	-7.2632	3.7231	-4.3335	1.4886	-7.6245	77.5525	53.0600 
801.419	0.0469	-0.2461	0.9893	-7.0190	4.5776	-7.6294	1.3293	-7.5586	77.5635	52.7200 
801.450	0.0557	-0.1929	1.0522	-6.7139	4.8828	-9.3384	1.1975	-7.4927	77.5305	52.8600 
801.450	0.0435	-0.1211	1.0640	-6.6528	5.1880	-10.0098	1.0876	-7.4103	77.4701	52.8200 
801.481	0.0420	-0.0396	1.0107	-5.9204	5.2490	-8.0566	1.0162	-7.3279	77.3932	52.7200 
801.481	0.0581	0.0122	0.9648	-5.2490	9.1553	-5.1270	0.9613	-7.2180	77.3328	52.9100 
801.481	0.0630	0.0283	0.9453	-4.4556	10.6812	-2.0752	0.9229	-7.0917	77.2888	52.8200 
801.512	0.0630	0.0146	0.9243	-3.8452	12.0850	-1.7090	0.8899	-6.9598	77.2668	52.6700 
801.512	0.0566	-0.0068	0.8955	-2.6855	12.2070	-3.4790	0.8569	-6.8170	77.2339	52.9100 
801.512	0.0674	-0.0225	0.8711	-1.8311	12.5122	-4.3335	0.8295	-6.6797	77.1954	52.8600 
801.512	0.0757	-0.0347	0.8594	-0.3052	11.5967	-5.1880	0.8075	-6.5479	77.1570	52.8200 
801.528	0.0801	-0.0435	0.8398	0.9155	8.8501	-5.7373	0.7965	-6.4435	77.1185	52.9100 
801.528	0.0737	-0.0454	0.8057	2.9907	6.1035	-5.7373	0.8075	-6.3721	77.0746	52.8200 
801.559	0.0620	-0.0474	0.7808	4.2725	4.6997	-5.8594	0.8295	-6.3116	77.0306	52.6200 
801.559	0.0566	-0.0488	0.7603	6.1035	5.1270	-5.3711	0.8624	-6.2457	76.9977	52.8600 
801.559	0.0674	-0.0522	0.7720	7.3242	7.5073	-5.5542	0.9119	-6.1688	76.9592	52.9100 
801.590	0.0923	-0.0522	0.8096	8.4839	10.2539	-6.1646	0.9723	-6.0754	76.9208	52.6700 
801.590	0.1338	-0.0581	0.8823	10.6201	10.8643	-6.4697	1.0492	-5.9766	76.8823	52.7200 
801.590	0.1523	-0.0605	0.9409	10.6201	7.7515	-5.7373	1.1316	-5.9106	76.8494	52.8600 
801.622	0.1450	-0.0771	0.9502	10.2539	3.5400	-4.1504	1.2085	-5.8832	76.8274	52.8200 
801.622	0.1279	-0.0854	0.9453	9.3384	1.7090	-3.1128	1.2744	-5.8777	76.8219	52.8200 
801.622	0.1104	-0.0850	0.9380	8.7891	0.3052	-1.7090	1.3239	-5.8777	76.8329	52.8600 
801.622	0.1045	-0.0767	0.9272	7.6294	-1.0986	-0.3052	1.3678	-5.8887	76.8549	52.8600 
801.668	0.1147	-0.0684	0.9204	6.6528	-0.9766	-0.1221	1.4008	-5.9106	76.8768	53.0100 
801.668	0.1470	-0.0400	0.9214	5.4932	0.6104	0.2441	1.4337	-5.9271	76.8933	52.9100 
801.668	0.1650	-0.0088	0.9521	5.9814	1.8921	1.5259	1.4722	-5.9326	76.9153	52.8200 
801.668	0.1548	0.0098	1.0054	6.9580	0.0000	3.0518	1.5271	-5.9436	76.9427	52.8600 
801.700	0.1045	0.0000	1.0083	8.3008	-2.5024	4.6387	1.5985	-5.9711	76.9867	53.0600 
801.700	0.0610	-0.0117	0.9937	10.3149	-3.8452	4.5776	1.6754	-5.9930	77.0306	52.6700 
801.715	0.0410	-0.0112	0.9897	11.5356	-2.5635	5.6763	1.7688	-6.0040	77.0856	52.9100 
801.715	0.0352	-0.0024	1.0122	11.8408	-0.0610	7.8125	1.8622	-5.9875	77.1625	52.8200 
801.715	0.0444	-0.0103	1.0483	11.9629	2.1973	10.6201	1.9556	-5.9491	77.2614	52.8600 
801.762	0.0571	-0.0049	1.0566	11.7798	3.6011	13.8550	2.0490	-5.9052	77.3987	52.6700 
801.762	0.0610	-0.0112	1.0576	11.8408	5.1270	16.7236	2.1313	-5.8502	77.5635	52.8600 
801.762	0.0605	-0.0215	1.0659	12.0850	5.3711	19.0430	2.2137	-5.7898	77.7557	52.8200 
801.793	0.0552	-0.0098	1.0962	12.2681	5.3711	20.0195	2.3016	-5.7239	77.9590	52.7200 
801.793	0.0366	0.0615	1.1646	12.2070	7.7515	22.4609	2.4005	-5.6415	78.1677	52.6700 
801.825	0.0044	0.1455	1.3486	10.6812	9.7046	28.8086	2.5049	-5.5316	78.4039	52.6700 
801.825	-0.0176	0.1621	1.5449	10.8643	3.2349	33.9966	2.6038	-5.4547	78.6896	52.7200 
801.825	-0.0083	0.0835	1.5679	11.9629	-8.7280	32.1045	2.6971	-5.4932	78.9862	52.8600 
801.825	0.0044	0.0483	1.4800	14.7705	-14.2212	24.7803	2.8070	-5.6030	79.2224	52.6700 
801.840	-0.0044	0.0073	1.3804	14.8315	-13.4888	19.5923	2.9279	-5.7184	79.4092	52.8600 
801.840	-0.0215	-0.0112	1.2715	13.8550	-7.6294	9.6436	3.0377	-5.7733	79.5135	52.8600 
801.856	-0.0166	-0.0464	1.1431	12.6953	-3.7231	-2.3193	3.1366	-5.7788	79.5190	53.0600 
801.856	0.0063	-0.0137	1.0068	9.8267	0.1221	-11.6577	3.2245	-5.7458	79.4147	52.8200 
801.856	-0.0010	0.0566	0.9507	7.0190	1.5259	-10.6812	3.3069	-5.6909	79.2719	52.9100 
801.903	-0.0249	0.0918	0.9106	4.0283	-0.9155	-6.2256	3.3783	-5.6525	79.1510	52.8600 
801.903	-0.0386	0.1201	0.8726	0.0000	-3.2349	-1.0376	3.4222	-5.6360	79.0686	52.8200 
801.903	0.0073	0.1450	0.8687	-3.1128	0.7935	3.7231	3.4387	-5.6085	79.0302	52.8600 
801.903	0.0835	0.1709	0.9590	-6.2866	8.0566	9.3994	3.4113	-5.5426	79.0576	53.0600 
801.934	0.1240	0.1519	1.0918	-7.2021	13.3667	14.8315	3.3618	-5.4382	79.1565	52.8600 
801.934	0.1138	0.0913	1.2310	-6.6528	14.5264	16.1133	3.2849	-5.3064	79.2938	52.8200 
801.934	0.0884	0.0220	1.2822	-5.4321	7.7515	12.2681	3.2080	-5.2075	79.4147	52.9100 
801.949	0.0708	0.0059	1.1445	-4.6387	-1.8921	8.7891	3.1366	-5.2020	79.4971	52.7200 
801.949	0.0786	0.0293	0.9780	-4.8828	-1.8311	10.3760	3.0707	-5.2240	79.5740	52.8200 
801.996	0.0874	0.0474	0.8916	-5.4321	2.6245	14.6484	2.9993	-5.2185	79.6893	52.8600 
801.996	0.0723	0.0430	0.8750	-6.4697	4.2114	16.2354	2.9224	-5.1855	79.8267	52.6700 
801.996	0.0605	0.0391	0.8369	-7.5073	2.2583	15.1978	2.8345	-5.1636	79.9530	52.7200 
802.028	0.0562	0.0483	0.7847	-8.4839	-0.6104	13.8550	2.7411	-5.1581	80.0684	52.7200 
802.028	0.0688	0.0620	0.7241	-9.0942	-2.9907	13.1836	2.6532	-5.1910	80.1617	52.8600 
802.028	0.0747	0.0698	0.6772	-9.2163	-4.3335	13.0005	2.5653	-5.2405	80.2496	52.6700 
802.028	0.0728	0.0718	0.6245	-7.9956	-4.7607	13.6719	2.4884	-5.3009	80.3430	52.8600 
802.028	0.0718	0.0669	0.5825	-5.9814	-2.2583	14.0381	2.4390	-5.3503	80.4364	52.8600 
802.059	0.0679	0.0679	0.5737	-3.5400	3.0518	13.8550	2.4060	-5.3503	80.5353	53.0100 
802.059	0.0786	0.0635	0.6099	-0.9155	9.8267	12.8174	2.4005	-5.2844	80.6287	52.8200 
802.074	0.0889	0.0605	0.6826	1.7090	15.5640	11.1694	2.4170	-5.1636	80.7111	52.6700 
802.074	0.1069	0.0659	0.7915	4.3945	17.9443	9.0332	2.4609	-5.0098	80.7825	52.5300 
802.090	0.1206	0.0498	0.8936	6.4697	17.0288	8.1787	2.5159	-4.8560	80.8429	52.8600 
802.090	0.1333	0.0493	0.9756	7.6294	14.2212	6.2866	2.5818	-4.7241	80.8978	52.7200 
802.090	0.1221	0.0474	1.0552	7.3853	8.6670	4.8218	2.6532	-4.6417	80.9253	52.8600 
802.106	0.1064	0.0483	1.0801	6.2866	2.4414	1.9531	2.7191	-4.6088	80.9308	52.6700 
802.106	0.1084	0.0796	1.0469	3.6621	-1.9531	-1.0986	2.7686	-4.6252	80.8978	52.6700 
802.121	0.1328	0.1001	0.9883	0.7935	-3.4790	-1.8921	2.8015	-4.6747	80.8429	53.0100 
802.137	0.1577	0.1196	0.9595	-1.7090	-1.7700	0.0610	2.8125	-4.7241	80.7935	52.8600 
802.153	0.1582	0.1069	0.9634	-4.0894	-0.3052	2.7466	2.7960	-4.7626	80.7770	52.8200 
802.199	0.1304	0.0742	0.9937	-5.7373	0.1221	3.2959	2.7521	-4.7791	80.7825	52.8200 
802.199	0.1152	0.0161	1.0405	-6.4697	0.7935	0.4883	2.6807	-4.7845	80.7770	52.8200 
802.231	0.1089	0.0293	1.0811	-7.3853	-2.2583	-1.8311	2.6038	-4.8065	80.7440	52.8600 
802.231	0.1104	0.0073	1.0830	-8.0566	-4.5166	-2.5635	2.5159	-4.8505	80.7056	52.6200 
802.231	0.1157	0.0176	1.0747	-9.1553	-4.1504	-0.6104	2.4225	-4.8999	80.6726	52.9100 
802.231	0.1099	0.0381	1.0562	-10.1318	-0.6104	1.9531	2.3181	-4.9219	80.6671	52.8600 
802.231	0.1128	0.0693	1.0771	-11.1694	4.1504	2.9907	2.2137	-4.8999	80.6726	52.8200 
802.231	0.1416	0.0908	1.1353	-11.8408	6.7139	1.3428	2.1094	-4.8505	80.6616	52.7200 
802.262	0.1909	0.1006	1.2026	-11.6577	5.7373	-1.7700	2.0050	-4.8065	80.6232	52.8600 
802.262	0.2520	0.0923	1.2554	-10.1318	0.9766	-5.2490	1.9116	-4.8175	80.5573	52.6700 
802.262	0.2563	0.0552	1.3140	-8.3618	-3.1128	-5.9204	1.8347	-4.8779	80.4803	52.7200 
802.294	0.1724	-0.0342	1.4155	-4.5166	-6.7139	-6.5918	1.7743	-4.9493	80.4144	52.6700 
802.294	0.0581	-0.1147	1.5132	-2.1973	-15.9912	-9.2773	1.7249	-5.0702	80.3320	52.6200 
802.309	-0.0347	-0.1636	1.5122	-3.4790	-25.0244	-10.3760	1.6589	-5.2625	80.2496	52.6200 
802.309	-0.0859	-0.1309	1.3770	-6.3477	-24.4751	-10.4370	1.5656	-5.4657	80.1672	52.6200 
802.324	-0.0913	-0.0093	1.1968	-7.5073	-12.7563	-9.7046	1.4832	-5.5701	80.0574	52.7200 
802.324	-0.1045	0.0674	1.1240	-7.8735	5.4321	-5.6763	1.4227	-5.4932	79.9530	52.8600 
802.340	-0.1191	0.0776	1.1338	-6.8970	14.7705	-7.2632	1.3733	-5.2899	79.8486	52.8600 
802.340	-0.0806	0.0581	1.0649	-5.1880	15.3809	-14.2822	1.3458	-5.0702	79.6893	52.7200 
802.340	-0.0176	0.0474	0.9653	-3.1128	13.4277	-18.3105	1.3348	-4.8889	79.4916	52.8200 
802.356	0.0078	0.0308	0.8838	-0.7935	11.0474	-18.6768	1.3403	-4.7406	79.2883	52.8600 
802.356	0.0137	-0.0254	0.8311	2.1362	8.7280	-16.9678	1.3568	-4.6198	79.1125	52.8600 
802.403	-0.0127	-0.0776	0.7705	5.1270	4.9438	-16.1133	1.3733	-4.5319	78.9807	53.0100 
802.403	-0.0645	-0.1260	0.7378	7.2021	2.3193	-14.5874	1.3898	-4.4550	78.8818	52.5300 
802.434	-0.0967	-0.1929	0.7314	8.4229	3.7231	-16.5405	1.3843	-4.3616	78.8104	52.8200 
802.434	-0.0776	-0.1953	0.8018	9.0332	8.2397	-19.8364	1.3898	-4.2407	78.7170	52.8600 
802.434	-0.0508	-0.1401	0.9043	8.9111	12.5122	-18.7988	1.4227	-4.0814	78.5852	52.6700 
802.449	-0.0449	-0.0815	1.0430	7.9346	16.2354	-14.5874	1.4667	-3.8892	78.4644	52.7200 
802.449	-0.0454	-0.0288	1.1729	6.7749	17.3950	-11.9019	1.5271	-3.6749	78.3545	53.0100 
802.449	-0.0322	0.0005	1.2583	5.9204	14.0991	-12.0850	1.5820	-3.4882	78.2391	52.8200 
802.465	-0.0244	0.0229	1.2671	5.3711	7.5684	-12.5122	1.6370	-3.3618	78.1128	52.7200 
802.481	-0.0083	0.0029	1.1606	5.5542	0.0610	-13.5498	1.6919	-3.3179	77.9810	52.8600 
802.481	-0.0005	-0.0410	1.0200	5.6763	0.6714	-13.4888	1.7358	-3.2904	77.8546	52.8600 
802.481	-0.0063	-0.0889	0.9385	5.3101	4.3945	-14.8315	1.7633	-3.2300	77.7448	52.6700 
802.496	-0.0059	-0.1172	0.8862	4.8218	6.2256	-18.2495	1.7633	-3.1476	77.6239	52.6200 
802.496	0.0107	-0.1172	0.8340	3.9673	4.6997	-22.0947	1.7578	-3.0762	77.4701	53.0100 
802.496	0.0322	-0.0996	0.7603	4.0894	2.1973	-22.8882	1.7578	-3.0377	77.2943	52.6700 
802.528	0.0415	-0.0781	0.7002	4.9438	0.3052	-22.7661	1.7688	-3.0267	77.1130	52.6700 
802.528	0.0322	-0.0596	0.6494	6.2256	-1.6479	-21.1792	1.7963	-3.0377	76.9373	52.8200 
802.559	0.0088	-0.0405	0.5942	7.6294	-1.7090	-19.5923	1.8402	-3.0377	76.7725	52.7200 
802.559	-0.0107	-0.0176	0.5781	8.7280	0.7935	-17.6392	1.9116	-3.0103	76.6187	52.6200 
802.559	-0.0215	0.0054	0.5854	9.2163	5.7983	-14.2822	1.9995	-2.9333	76.4758	52.6700 
802.575	0.0005	0.0317	0.6416	8.7280	10.8032	-10.7422	2.0929	-2.8125	76.3605	52.8600 
802.575	0.0249	0.0610	0.7017	7.5684	13.6719	-6.8359	2.1918	-2.6697	76.2781	52.8200 
802.638	0.0352	0.0835	0.7754	6.5918	13.9160	-2.9907	2.2852	-2.5269	76.2286	52.8600 
802.638	0.0430	0.1001	0.8340	5.4932	11.1694	0.1221	2.3676	-2.4115	76.2067	52.8200 
802.638	0.0454	0.0991	0.8696	5.0659	5.6763	1.4648	2.4390	-2.3456	76.2067	52.8200 
802.638	0.0474	0.0977	0.8745	5.3101	-0.1221	2.9907	2.5159	-2.3401	76.2177	52.8200 
802.669	0.0674	0.0737	0.8721	6.2256	-4.7607	3.6621	2.5873	-2.3840	76.2396	52.6700 
802.669	0.0933	0.0547	0.8506	7.3242	-9.1553	4.2114	2.6642	-2.4884	76.2781	52.6700 
802.669	0.1152	0.0425	0.8208	8.9722	-11.7798	4.7607	2.7521	-2.6312	76.3220	52.6700 
802.669	0.1260	0.0366	0.8003	10.3760	-13.0615	4.5776	2.8510	-2.7960	76.3660	52.6200 
802.669	0.1191	0.0259	0.7891	11.7798	-15.1978	5.3711	2.9553	-2.9828	76.4209	52.8600 
802.700	0.1104	0.0020	0.7744	12.5732	-17.5171	5.1880	3.0597	-3.1860	76.4813	52.7200 
802.731	0.0908	-0.0029	0.7603	12.6953	-19.1650	6.1035	3.1641	-3.4003	76.5472	52.8600 
802.731	0.0679	-0.0161	0.7510	11.8408	-20.5688	7.0801	3.2574	-3.6200	76.6241	52.8200 
802.731	0.0532	-0.0396	0.7573	10.8032	-20.3247	6.2256	3.3344	-3.8287	76.7010	52.8200 
802.763	0.0630	-0.0469	0.7749	9.6436	-18.9209	3.9673	3.3893	-4.0265	76.7615	52.7200 
802.778	0.0933	-0.0698	0.8071	8.3618	-16.4185	2.5024	3.4277	-4.2133	76.8164	52.6200 
802.778	0.1323	-0.0811	0.8677	7.3853	-13.2446	2.3804	3.4552	-4.3781	76.8658	52.6200 
802.809	0.1489	-0.1040	0.9365	6.4697	-11.5356	2.7466	3.4662	-4.5264	76.9318	52.8200 
802.809	0.1333	-0.1187	0.9756	4.9438	-13.0005	2.7466	3.4607	-4.6802	76.9977	52.8600 
802.809	0.1084	-0.1152	0.9814	3.8452	-14.8926	1.6479	3.4387	-4.8395	77.0581	52.8200 
802.841	0.0737	-0.0591	0.9341	2.8687	-15.8081	0.1831	3.4222	-4.9988	77.0911	52.5300 
802.841	0.0044	0.0688	0.9302	1.0986	-11.0474	1.8921	3.4277	-5.1086	77.0911	52.6700 
802.841	-0.0444	0.1294	1.0483	0.7324	-0.0610	2.9297	3.4552	-5.0977	77.0856	52.9100 
802.841	-0.0239	0.1558	1.2588	2.1362	10.8032	0.2441	3.4937	-4.9713	77.0691	52.6700 
802.841	-0.0161	0.1899	1.4414	5.2490	9.5825	0.0000	3.5596	-4.8340	77.0361	53.0100 
802.841	-0.0459	0.1938	1.5264	8.3008	3.5400	5.6763	3.6584	-4.7516	77.0471	52.6700 
802.841	-0.1099	0.1128	1.5166	9.3384	3.6011	13.0615	3.7518	-4.6802	77.1405	52.5300 
802.887	-0.1528	0.0161	1.4131	9.5825	4.5166	9.9487	3.8232	-4.5868	77.2504	52.6700 
802.887	-0.1724	0.0415	1.2310	8.5449	2.4414	0.2441	3.8947	-4.4879	77.2723	52.5300 
802.887	-0.1519	0.1016	1.0596	6.1035	11.8408	-4.8828	3.9716	-4.3176	77.2009	52.6200 
802.903	-0.1162	0.1226	1.0420	3.6621	24.6582	-5.7373	4.0375	-4.0320	77.1130	52.6700 
802.918	-0.0537	0.1211	1.0977	1.5259	29.4800	-4.8828	4.0759	-3.6969	77.0416	52.6700 
802.918	0.0273	0.0942	1.1924	-1.8311	26.8555	-3.6621	4.0759	-3.3948	76.9977	52.8200 
802.918	0.0938	0.0522	1.2686	-4.1504	18.1274	-0.9766	4.0320	-3.1915	76.9867	52.8600 
802.934	0.1152	0.0537	1.2871	-6.1646	6.5308	1.3428	3.9661	-3.1146	77.0032	52.7200 
802.934	0.0342	0.1230	1.2881	-8.5449	-0.6104	6.5308	3.8837	-3.1036	77.0416	52.6700 
802.934	-0.0659	0.1836	1.3291	-10.9253	1.1597	15.1978	3.7958	-3.0817	77.1350	52.7200 
802.965	-0.0825	0.1807	1.4121	-11.2305	5.8594	18.7378	3.6969	-3.0048	77.2778	52.7200 
802.965	-0.0254	0.1631	1.4053	-10.8032	6.5308	14.9536	3.5980	-2.9224	77.4152	52.7200 
803.012	0.0605	0.1709	1.3027	-8.7280	4.4556	8.1787	3.5211	-2.8729	77.4811	52.6700 
803.012	0.1211	0.1636	1.1509	-6.4087	5.0659	6.8970	3.4772	-2.8455	77.5250	52.5300 
803.043	0.1616	0.1035	1.0850	-5.6152	5.7373	6.8970	3.4332	-2.8235	77.5800	52.8200 
803.043	0.2036	0.0635	1.0645	-6.1646	0.8545	6.3477	3.3673	-2.8455	77.6404	52.8200 
803.043	0.2314	0.0537	1.0327	-8.1787	-8.7891	6.2866	3.2904	-2.9663	77.7008	52.6700 
803.043	0.2534	0.0723	0.9502	-10.7422	-18.3105	9.2773	3.1860	-3.1970	77.7667	52.7200 
803.043	0.2310	0.1025	0.8491	-12.7563	-26.0010	14.5264	3.0762	-3.5211	77.8766	52.8600 
803.043	0.1978	0.1128	0.7456	-13.4888	-31.2500	17.7002	2.9663	-3.8947	78.0084	52.5300 
803.059	0.2017	0.1138	0.6250	-11.7798	-31.9824	16.7847	2.8674	-4.3011	78.1403	52.7200 
803.059	0.2041	0.1421	0.5674	-8.3008	-30.5786	16.6016	2.8180	-4.7076	78.2556	52.7200 
803.059	0.1704	0.1221	0.5313	-4.8828	-28.6865	18.9209	2.8070	-5.0922	78.3875	52.5300 
803.090	0.1104	0.0723	0.5005	-1.8921	-25.0854	22.2168	2.8015	-5.4163	78.5577	52.8200 
803.090	0.0527	0.0454	0.4844	0.7324	-21.7896	22.3389	2.7960	-5.6635	78.7500	52.8200 
803.121	0.0308	0.0371	0.4648	1.2817	-19.2261	23.8037	2.8015	-5.8667	78.9478	52.8200 
803.137	0.0132	0.0444	0.4600	1.5259	-13.6719	23.4985	2.8070	-6.0095	79.1510	52.6700 
803.137	0.0122	0.0547	0.5010	1.3428	-9.2163	22.2168	2.8180	-6.0919	79.3323	52.7200 
803.137	0.0273	0.0674	0.5601	0.6714	-6.5918	18.4937	2.8290	-6.1578	79.4861	52.6200 
803.153	0.0562	0.0742	0.6436	2.0142	-4.3945	13.3667	2.8510	-6.2018	79.5959	52.6200 
803.169	0.0874	0.0752	0.7163	3.3569	-4.3335	8.3008	2.8894	-6.2512	79.6564	52.6700 
803.169	0.1060	0.0566	0.7710	4.5776	-4.5166	5.1270	2.9333	-6.3062	79.6838	52.5300 
803.169	0.1240	0.0366	0.8291	4.6997	-6.8970	3.2959	2.9773	-6.3776	79.7003	52.7200 
803.184	0.1187	0.0439	0.8481	3.7231	-10.7422	4.2725	3.0157	-6.4929	79.7168	52.4800 
803.184	0.0972	0.0435	0.8740	1.4648	-13.5498	6.7139	3.0267	-6.6248	79.7552	52.6700 
803.215	0.0869	0.0371	0.8730	-1.3428	-15.3198	8.3008	3.0103	-6.7731	79.8102	52.5300 
803.246	0.0132	0.0547	0.9004	-3.6011	-14.4653	14.7095	2.9663	-6.8994	79.9036	52.6200 
803.246	-0.0542	-0.0571	1.0156	-0.9766	-12.0239	8.6670	2.9059	-6.9763	80.0134	52.6200 
803.246	0.0967	0.0503	1.2383	-0.1831	0.7935	1.1597	2.8894	-6.9763	80.0134	52.8200 
803.246	0.1274	0.0337	1.4561	1.3428	9.0332	7.0190	2.8839	-6.8939	80.0574	52.8200 
803.278	0.1304	0.0674	1.6680	0.8545	9.8267	12.2070	2.8729	-6.7841	80.1563	52.6200 
803.278	0.0942	0.0688	1.7129	-0.2441	5.4932	13.7329	2.8510	-6.7072	80.2771	52.6700 
803.293	0.0420	0.0264	1.5459	0.4272	-3.3569	13.9771	2.8290	-6.6962	80.3925	52.5300 
803.293	-0.0127	-0.0444	1.3394	0.9766	-3.0518	17.9443	2.7960	-6.7072	80.5518	52.7200 
803.293	-0.0806	-0.1484	1.2441	-0.3662	7.2632	20.1416	2.7246	-6.6138	80.7715	52.6700 
803.309	-0.1147	-0.1851	1.2329	-2.6245	15.0757	16.8457	2.6147	-6.4215	80.9912	52.6700 
803.309	-0.0518	-0.1738	1.2217	-4.5776	20.0195	11.2305	2.4884	-6.1853	81.1615	52.7200 
803.325	0.0640	-0.0962	1.2124	-5.0049	24.7192	7.8735	2.3840	-5.9271	81.2659	52.5300 
803.325	0.1694	-0.0190	1.2319	-3.8452	26.4893	10.1929	2.3016	-5.6744	81.3647	52.8600 
803.340	0.1909	-0.0054	1.2979	-1.1597	24.2310	14.0381	2.2577	-5.4492	81.5021	52.6700 
803.371	0.1558	-0.0444	1.3931	2.0752	18.6768	13.0615	2.2357	-5.2625	81.6394	52.4800 
803.371	0.1177	-0.1094	1.4668	4.4556	14.0381	6.5918	2.2302	-5.1141	81.7328	52.6200 
803.418	0.1128	-0.1641	1.4795	5.6763	11.4136	-0.4883	2.2357	-4.9878	81.7603	52.6200 
803.418	0.1499	-0.1572	1.3838	5.9204	6.5918	-5.4932	2.2467	-4.9109	81.7328	52.6200 
803.418	0.1699	-0.1045	1.2017	5.6763	3.5400	-2.0752	2.2632	-4.8889	81.7108	52.6200 
803.450	0.1484	-0.0796	1.0605	4.4556	3.8452	3.9063	2.2687	-4.8724	81.7438	52.8200 
803.450	0.0962	-0.0820	0.9595	2.2583	4.5166	7.9346	2.2467	-4.8395	81.8317	52.6200 
803.450	0.0645	-0.0762	0.8618	-0.1831	3.6621	6.4087	2.2028	-4.8065	81.9141	52.7200 
803.450	0.0649	-0.0508	0.7578	-2.3804	3.0518	3.5400	2.1423	-4.7736	81.9635	52.6200 
803.450	0.0923	-0.0371	0.6851	-3.1128	5.0049	2.5024	2.0764	-4.7461	81.9910	52.3400 
803.450	0.1157	-0.0313	0.6323	-2.8076	5.9204	1.5869	2.0160	-4.7186	82.0129	52.5300 
803.465	0.1230	-0.0293	0.6011	-1.8921	5.4321	1.2207	1.9666	-4.6967	82.0294	52.7200 
803.481	0.0928	-0.0366	0.5723	0.0610	2.6245	0.7935	1.9281	-4.6967	82.0459	52.4800 
803.481	0.0459	-0.0474	0.5288	2.1362	-0.7935	0.3052	1.9061	-4.7021	82.0624	52.8600 
803.497	0.0098	-0.0493	0.4839	3.4790	-2.0752	-0.1221	1.8896	-4.7076	82.0734	52.6700 
803.543	-0.0029	-0.0488	0.4741	4.5166	-0.5493	-0.1221	1.8896	-4.6912	82.0898	52.8200 
803.543	-0.0024	-0.0420	0.4878	4.5776	2.8687	1.1597	1.8896	-4.6417	82.1118	52.6700 
803.543	-0.0005	-0.0132	0.5474	3.6621	6.2256	2.3804	1.9006	-4.5593	82.1283	52.7200 
803.543	0.0156	0.0220	0.6333	2.5635	8.6060	5.7983	1.9226	-4.4604	82.1558	52.6700 
803.559	0.0474	0.0464	0.7217	0.5493	7.3853	10.0708	1.9336	-4.3781	82.2162	52.7200 
803.559	0.0791	0.0454	0.7886	-0.6714	5.0659	14.9536	1.9281	-4.3286	82.3260	52.5300 
803.559	0.1196	0.0190	0.8403	-2.2583	3.7842	17.8223	1.8951	-4.3176	82.4744	52.7200 
803.591	0.1445	-0.0283	0.8989	-2.1362	0.4883	19.4092	1.8402	-4.3341	82.6556	52.6200 
803.591	0.1523	-0.0801	0.9141	-1.8921	-4.2114	19.9585	1.7688	-4.4000	82.8589	52.6700 
803.591	0.1294	-0.1201	0.9067	-1.7700	-11.5356	20.6909	1.6864	-4.5319	83.0786	52.6700 
803.621	0.0537	-0.0854	0.8647	-2.0142	-17.0288	22.9492	1.6040	-4.7021	83.3148	52.4800 
803.621	-0.1108	-0.0039	0.8501	-3.8452	-18.1274	31.3721	1.5326	-4.8285	83.5730	52.4800 
803.621	-0.0776	-0.1494	0.8843	-4.0283	-7.2021	24.6582	1.4117	-4.8779	83.8641	52.9100 
803.653	0.0425	-0.0400	1.0190	-4.2114	9.8267	18.1885	1.3184	-4.8010	84.0509	52.6700 
803.668	0.0381	-0.0112	1.2603	-3.9063	21.3623	21.4233	1.2469	-4.5978	84.2322	52.7200 
803.668	0.0532	-0.0605	1.5117	-2.3193	22.6440	17.5781	1.1865	-4.3616	84.4135	52.5300 
803.684	0.0117	-0.0645	1.6396	-1.2817	18.3716	10.2539	1.1426	-4.1473	84.5233	52.5300 
803.684	-0.0220	-0.0356	1.6328	-0.1221	10.6812	1.4648	1.1151	-3.9880	84.5343	52.8200 
803.684	0.0293	0.0610	1.4790	1.4038	3.6621	-2.9907	1.1316	-3.9221	84.4794	52.6700 
803.700	0.0684	0.1377	1.3682	1.9531	7.3853	-5.6152	1.1755	-3.8507	84.3695	52.6200 
803.731	0.0601	0.1719	1.3730	2.6855	11.3525	-5.3711	1.2415	-3.7408	84.2542	52.6700 
803.731	0.0215	0.1470	1.3945	3.5400	13.7329	-6.1646	1.3074	-3.5925	84.1333	52.6200 
803.731	0.0264	0.0884	1.4102	4.0894	13.1226	-10.9863	1.3678	-3.4442	83.9905	52.6200 
803.747	0.0532	0.0645	1.3872	4.4556	10.8643	-15.5640	1.4282	-3.3179	83.8037	52.6700 
803.747	0.0728	0.0439	1.3706	4.6387	6.9580	-16.8457	1.4886	-3.2300	83.6005	52.5300 
803.747	0.0532	0.0400	1.3105	4.1504	1.5259	-15.8081	1.5436	-3.1970	83.4082	52.5300 
803.778	0.0361	0.0405	1.2310	3.3569	-0.9766	-14.5264	1.5875	-3.1860	83.2214	52.5300 
803.778	0.0503	0.0659	1.1475	1.8921	0.1221	-12.5122	1.6260	-3.1860	83.0511	52.6200 
803.778	0.0806	0.0835	1.0952	-0.3052	3.1128	-10.3149	1.6534	-3.1586	82.8973	52.6700 
803.793	0.1274	0.0986	1.0615	-1.8921	4.8218	-9.4604	1.6644	-3.1311	82.7600	52.7200 
803.825	0.1675	0.1040	1.0259	-3.5400	3.5400	-9.7046	1.6534	-3.1201	82.6227	52.5300 
803.825	0.1919	0.0903	0.9951	-5.0049	-0.4883	-9.7046	1.6315	-3.1586	82.4908	52.8200 
803.840	0.1899	0.0513	0.9429	-5.7983	-6.6528	-10.0098	1.5930	-3.2520	82.3590	52.6700 
803.872	0.1694	0.0327	0.8833	-6.2866	-12.6953	-11.5967	1.5381	-3.4058	82.2217	52.7200 
803.872	0.1489	0.0254	0.8052	-6.4087	-16.8457	-14.0991	1.4832	-3.6090	82.0679	52.4800 
803.872	0.1313	0.0342	0.7441	-6.2256	-18.9209	-15.3198	1.4392	-3.8287	81.8921	52.4800 
803.872	0.1177	0.0278	0.6929	-5.6152	-19.3481	-16.9067	1.3953	-4.0540	81.6998	52.3800 
803.872	0.1040	0.0215	0.6553	-4.5776	-18.4326	-19.5313	1.3623	-4.2627	81.4911	52.7200 
803.887	0.0840	0.0200	0.6309	-3.5400	-18.1885	-22.7051	1.3458	-4.4659	81.2494	52.6200 
803.887	0.0698	0.0210	0.6099	-2.2583	-17.1509	-24.4751	1.3403	-4.6472	80.9912	52.5300 
803.918	0.0396	0.0327	0.5933	-0.6104	-16.1743	-23.8037	1.3623	-4.8010	80.7275	52.6700 
803.918	0.0200	0.0273	0.5820	0.0000	-15.2588	-24.2920	1.3898	-4.9384	80.4639	52.6700 
803.918	0.0361	0.0293	0.5674	0.0610	-11.7188	-26.4282	1.4227	-5.0482	80.1782	52.6700 
803.950	0.0596	0.0649	0.5742	-0.2441	-7.0801	-25.9399	1.4667	-5.1251	79.8816	52.6700 
803.950	0.0664	0.0776	0.6025	-0.8545	-4.8218	-24.4141	1.5216	-5.1801	79.6014	52.6200 
803.950	0.0732	0.0854	0.6187	-2.0752	-4.8218	-23.0103	1.5601	-5.2295	79.3268	52.3800 
803.981	0.0903	0.0845	0.6069	-3.2349	-5.6152	-21.0571	1.5875	-5.3009	79.0741	52.3800 
803.981	0.1011	0.0830	0.5952	-4.3945	-3.7231	-17.8223	1.6040	-5.3613	78.8599	52.6700 
803.981	0.0308	0.1104	0.6455	-4.9438	-1.9531	-10.0708	1.6095	-5.3833	78.6896	52.6200 
803.997	-0.0571	0.0122	0.7402	-3.7231	-2.5635	-6.1646	1.5875	-5.3558	78.6072	52.6700 
804.028	0.0454	0.0127	0.8975	-2.5024	2.8076	-9.1553	1.5601	-5.3119	78.5138	52.4800 
804.060	0.1338	0.0034	1.1196	0.0000	8.4229	-4.1504	1.5491	-5.2460	78.4644	52.6200 
804.060	0.1543	-0.0254	1.4438	2.1362	17.8223	4.8218	1.5546	-5.0977	78.4973	52.4800 
804.060	0.0625	-0.1025	1.8569	1.4648	26.0010	3.4790	1.5381	-4.8450	78.5687	52.5300 
804.060	-0.0356	-0.0801	2.0825	-0.3052	12.1460	-5.6763	1.5161	-4.6362	78.5522	52.6200 
804.091	-0.0908	-0.0469	1.7666	-1.0376	-11.0474	-8.6060	1.4941	-4.6582	78.4753	52.5300 
804.091	-0.0371	-0.0576	1.3271	0.1221	-3.7231	-8.4229	1.4777	-4.6912	78.3929	52.5300 
804.091	-0.0190	-0.1123	1.1904	-0.4272	20.4468	-6.0425	1.4447	-4.5099	78.3545	52.6700 
804.091	-0.0249	-0.1338	1.2261	-1.7090	32.4097	-9.3994	1.3898	-4.1748	78.3105	52.3800 
804.122	0.0181	-0.1328	1.2402	-2.6855	32.4097	-14.0991	1.3293	-3.8232	78.2227	52.6200 
804.122	0.0620	-0.0894	1.2319	-3.4180	30.2124	-14.6484	1.2689	-3.5046	78.1018	52.6700 
804.122	0.0781	-0.0332	1.2109	-3.0518	28.0762	-10.4370	1.2250	-3.2245	78.0029	52.5300 
804.153	0.0698	0.0098	1.2622	-1.6479	24.6582	-2.9297	1.1975	-2.9663	77.9645	52.5300 
804.153	0.0493	0.0200	1.3379	0.9766	17.5781	1.7700	1.1975	-2.7686	77.9755	52.5300 
804.153	0.0591	0.0156	1.3716	3.7842	11.9629	3.0518	1.2250	-2.6367	78.0084	52.6700 
804.185	0.0811	0.0107	1.3569	6.7749	11.2305	2.7466	1.2799	-2.5323	78.0359	52.5300 
804.200	0.0815	-0.0024	1.3364	9.3384	12.2070	3.1738	1.3568	-2.4170	78.0688	52.6700 
804.200	0.0688	-0.0400	1.2808	11.8408	11.9019	3.4790	1.4502	-2.3016	78.1128	52.6700 
804.200	0.0566	-0.0557	1.1934	13.0005	11.4136	2.3193	1.5491	-2.1918	78.1567	52.6200 
804.231	0.0586	-0.0703	1.1157	12.7563	12.6343	1.8921	1.6479	-2.0764	78.1952	52.4800 
804.262	0.0669	-0.0884	1.0586	11.4136	15.1978	0.7935	1.7303	-1.9391	78.2336	52.3800 
804.262	0.0947	-0.0972	1.0332	10.1318	15.5640	-1.2207	1.7908	-1.8018	78.2556	52.3800 
804.262	0.1025	-0.0933	1.0234	9.0332	10.8643	-1.0986	1.8457	-1.7029	78.2666	52.6200 
804.262	0.1250	-0.0947	0.9697	8.4229	3.8452	-3.0518	1.8896	-1.6809	78.2721	52.5300 
804.262	0.1694	-0.0845	0.9063	8.4839	-0.7935	-7.9956	1.9281	-1.7249	78.2336	52.6200 
804.278	0.1548	-0.0420	0.8667	8.4839	-6.7139	-7.6904	1.9885	-1.8237	78.1622	52.7200 
804.278	0.0928	-0.0498	0.8081	9.2163	-12.6953	-6.7139	2.0490	-1.9720	78.1128	52.6700 
804.278	0.0352	-0.0645	0.7227	10.0098	-16.2354	-7.3242	2.1149	-2.1368	78.0634	52.3800 
804.325	0.0068	-0.0601	0.6230	9.9487	-16.2964	-8.3008	2.1698	-2.2906	78.0029	52.3400 
804.325	0.0078	-0.0415	0.5474	9.3384	-13.9771	-7.5073	2.2247	-2.4280	77.9425	52.3400 
804.325	0.0195	-0.0220	0.4932	8.1787	-10.3760	-4.6997	2.2797	-2.5323	77.9041	52.7200 
804.325	0.0259	0.0044	0.4629	7.1411	-6.4087	-1.7090	2.3401	-2.6093	77.8766	52.5300 
804.356	0.0342	0.0195	0.4590	5.1880	-4.9438	1.2817	2.3950	-2.6642	77.8766	52.4800 
804.356	0.0425	0.0415	0.4512	3.9673	-4.2114	4.5776	2.4445	-2.7246	77.8986	52.5300 
804.356	0.0278	0.0522	0.4502	2.7466	-3.2349	8.7891	2.4994	-2.7740	77.9535	52.4800 
804.387	0.0044	0.0386	0.4712	1.3428	-1.2207	12.2070	2.5269	-2.7905	78.0469	52.3800 
804.387	-0.0122	0.0220	0.5220	1.2207	0.4883	14.5264	2.5378	-2.7740	78.1732	52.3800 
804.387	-0.0063	-0.0024	0.5942	0.7324	1.8921	15.2588	2.5214	-2.7411	78.3215	52.4800 
804.403	0.0269	-0.0166	0.6597	0.7324	3.9063	14.9536	2.4994	-2.7081	78.4808	52.1900 
804.403	0.0640	-0.0239	0.7490	0.4272	5.2490	16.2354	2.4719	-2.6752	78.6511	52.3400 
804.434	0.0674	-0.0137	0.8408	0.4883	3.5400	19.4092	2.4445	-2.6532	78.8434	52.4800 
804.450	0.0308	0.0283	0.9277	0.0610	0.7935	22.3999	2.4280	-2.6477	79.0521	52.3800 
804.450	-0.0498	0.0303	1.0264	-0.7935	-2.5635	25.7568	2.4115	-2.6532	79.2883	52.5300 
804.481	-0.0264	0.0200	1.1523	-0.6104	5.9204	20.8740	2.3840	-2.5983	79.5026	52.3800 
804.481	0.0425	0.0425	1.3555	-0.1221	15.3809	16.4795	2.3730	-2.4664	79.6674	52.3800 
804.481	0.0845	0.0288	1.6138	1.4038	15.0146	15.2588	2.3676	-2.3181	79.8157	52.6200 
804.497	0.0732	-0.0127	1.7773	2.3193	6.7139	13.8550	2.3676	-2.2357	79.9530	52.6700 
804.497	-0.0112	-0.0664	1.7109	2.4414	-4.3945	10.0708	2.3621	-2.2467	80.0629	52.5300 
804.497	-0.0669	-0.0786	1.4985	1.0986	-9.7656	4.8828	2.3456	-2.3126	80.1233	52.5300 
804.512	-0.0313	-0.0308	1.2734	-0.9155	-4.1504	1.8921	2.3181	-2.3511	80.1453	52.3800 
804.512	0.0107	-0.0010	1.1948	-2.6855	7.9956	-0.5493	2.2797	-2.2906	80.1398	52.3800 
804.512	0.0063	0.0337	1.2065	-5.1880	13.0005	-3.8452	2.2247	-2.1533	80.1013	52.6200 
804.528	0.0205	0.0425	1.2271	-7.0190	13.9160	-8.7891	2.1643	-2.0050	80.0134	52.2900 
804.552	0.0586	0.0859	1.2559	-7.9346	14.5874	-11.5967	2.0929	-1.8567	79.8816	52.5300 
804.565	0.0840	0.1294	1.3330	-6.6528	12.6953	-7.9956	2.0435	-1.7303	79.7662	52.6200 
804.565	0.0864	0.1255	1.3760	-4.8218	4.5776	-2.5635	2.0105	-1.6699	79.7058	52.4800 
804.581	0.0552	0.1069	1.3320	-3.2349	-3.7231	-0.6714	1.9940	-1.6974	79.6619	52.5300 
804.581	-0.0029	0.1270	1.2827	-2.5024	-5.4932	1.7090	1.9885	-1.7468	79.6399	52.6200 
804.597	-0.0278	0.1216	1.2808	-1.6479	-1.3428	3.2959	1.9940	-1.7578	79.6344	52.5300 
804.597	0.0088	0.0942	1.3389	-1.0376	2.8687	0.3052	1.9940	-1.7303	79.6179	52.8200 
804.597	0.0659	0.0801	1.3647	-0.6104	3.3569	-6.4087	1.9995	-1.6919	79.5575	52.4800 
804.628	0.1006	0.0869	1.3125	-0.9766	-1.7700	-9.8267	1.9995	-1.7084	79.4421	52.3800 
804.628	0.1245	0.0796	1.1938	-1.2207	-7.6904	-9.7656	2.0050	-1.7908	79.3268	52.6700 
804.628	0.1401	0.0620	1.0806	-2.3804	-11.2305	-8.6060	1.9940	-1.9226	79.2169	52.3800 
804.659	0.1563	0.0332	0.9995	-3.8452	-13.6719	-7.4463	1.9611	-2.0929	79.1290	52.4800 
804.675	0.1704	0.0239	0.9321	-5.7983	-16.7847	-7.3242	1.9116	-2.2961	79.0521	52.5300 
804.675	0.1714	0.0220	0.8599	-6.7749	-20.8130	-6.5308	1.8457	-2.5378	78.9752	52.3800 
804.690	0.1543	0.0098	0.7881	-7.8125	-26.2451	-5.4321	1.7688	-2.8400	78.9093	52.1900 
804.706	0.1270	0.0000	0.7026	-7.8735	-31.1279	-5.7983	1.6864	-3.1805	78.8489	52.3400 
804.706	0.0840	-0.0010	0.5923	-7.9346	-35.1563	-6.4087	1.5985	-3.5541	78.7830	52.2900 
804.706	0.0298	0.0049	0.4766	-6.8970	-36.9263	-6.4087	1.5271	-3.9276	78.7061	52.3400 
804.722	-0.0229	0.0078	0.3770	-5.7373	-35.7056	-7.2632	1.4667	-4.2517	78.6237	52.5300 
804.722	-0.0547	0.0107	0.2822	-4.7607	-30.7007	-9.7656	1.4282	-4.4879	78.5028	52.5300 
804.722	-0.0542	0.0200	0.2158	-3.6621	-22.8882	-13.0615	1.4282	-4.6252	78.3215	52.3800 
804.753	-0.0205	0.0381	0.1953	-2.5024	-13.1836	-14.6484	1.4667	-4.7021	78.1128	52.6200 
804.753	0.0215	0.0513	0.2476	-1.4038	-2.3804	-15.3809	1.5216	-4.7406	77.9150	52.3400 
804.753	0.0405	0.0591	0.3901	-0.5493	4.6387	-16.0522	1.5710	-4.7076	77.7283	52.3400 
804.831	0.0674	0.0654	0.5459	1.4648	6.2866	-16.6016	1.6315	-4.6582	77.5415	52.3800 
804.831	0.0947	0.0430	0.6758	3.1128	5.8594	-17.1509	1.6864	-4.6143	77.3657	52.2900 
804.831	0.0728	0.0732	0.8018	4.3335	3.0518	-14.0381	1.7578	-4.5758	77.2064	52.2900 
804.831	0.0327	0.0415	0.8877	4.1504	-3.6621	-10.7422	1.8182	-4.5813	77.0856	52.4800 
804.878	-0.0171	0.0498	0.8687	2.3804	-8.9111	-9.8877	1.8622	-4.6252	76.9757	52.1900 
804.878	-0.1055	0.0342	0.9136	2.3193	-10.3760	-9.2773	1.9006	-4.6637	76.8658	52.5300 
804.878	0.0229	-0.0493	1.0410	4.5166	-1.7090	-22.8882	1.9281	-4.6747	76.6901	52.5300 
804.878	0.1563	0.0171	1.2881	6.5308	10.9863	-20.8740	1.9940	-4.5978	76.4758	52.6200 
804.878	0.1475	-0.0073	1.6372	8.9722	21.1792	-13.9160	2.0819	-4.4055	76.3385	52.3400 
804.894	0.0928	-0.0083	1.9980	8.1177	16.4185	-7.9956	2.1588	-4.2133	76.2671	52.3800 
804.909	0.0161	0.0117	2.0347	4.5776	-3.0518	-9.5825	2.2028	-4.1638	76.1847	52.2900 
804.909	-0.0015	0.0659	1.7188	2.9297	-21.4844	-4.7607	2.2412	-4.3121	76.1133	52.5300 
804.925	0.0605	0.0327	1.3599	1.8921	-18.3105	5.6763	2.2577	-4.5044	76.1353	52.3800 
804.925	0.0703	-0.0542	1.2036	-0.7935	-3.7231	12.9395	2.2247	-4.5758	76.2671	52.6700 
804.925	0.0508	-0.1094	1.1855	-3.5400	5.2490	12.5732	2.1423	-4.5319	76.4264	52.2900 
804.925	0.0659	-0.1382	1.1909	-4.8218	9.2773	9.8267	2.0380	-4.4440	76.5747	52.3800 
804.940	0.1074	-0.1396	1.2002	-5.1270	11.6577	8.7891	1.9281	-4.3396	76.7065	52.6200 
804.972	0.1191	-0.1289	1.2349	-4.8828	13.3667	9.7656	1.8237	-4.2242	76.8439	52.3800 
804.972	0.0957	-0.1040	1.3032	-3.1128	10.9863	10.0098	1.7358	-4.1144	76.9757	52.5300 
804.972	0.0728	-0.0737	1.3208	-1.0376	6.5918	8.7891	1.6864	-4.0375	77.0911	52.6700 
805.003	0.0674	-0.0474	1.2964	1.8921	5.3101	6.7139	1.6699	-3.9825	77.1844	52.5300 
805.003	0.0786	-0.0352	1.2495	4.0894	5.5542	6.2256	1.6809	-3.9276	77.2614	52.4800 
805.003	0.0786	-0.0430	1.1982	5.5542	6.4087	6.1035	1.7084	-3.8672	77.3383	52.3800 
805.034	0.0840	-0.0596	1.1597	6.2256	7.3242	5.4932	1.7358	-3.7958	77.4152	52.2900 
805.066	0.0947	-0.0830	1.1284	6.1035	5.9204	2.9297	1.7633	-3.7408	77.4756	52.3800 
805.066	0.1040	-0.1011	1.0767	5.2490	3.5400	-0.2441	1.7743	-3.7134	77.5085	52.5300 
805.066	0.1138	-0.1069	1.0015	4.3335	2.6855	-3.8452	1.7743	-3.6969	77.5140	52.4800 
805.066	0.1304	-0.1069	0.9341	2.8076	3.8452	-7.2632	1.7633	-3.6914	77.4811	52.6200 
805.097	0.1255	-0.1040	0.8770	2.0142	5.1270	-10.2539	1.7413	-3.6694	77.4261	52.5300 
805.097	0.1216	-0.0869	0.8486	1.5259	5.6152	-11.1084	1.7194	-3.6365	77.3492	52.5300 
805.097	0.1152	-0.0669	0.8198	1.3428	5.0049	-9.8267	1.7029	-3.6090	77.2778	52.4800 
805.097	0.0815	-0.0464	0.7837	1.0376	0.7935	-5.0659	1.6864	-3.6090	77.2394	52.4800 
805.128	0.0522	-0.0396	0.7412	1.3428	-3.3569	-1.8311	1.6699	-3.6365	77.2339	52.5300 
805.128	0.0488	-0.0288	0.6782	1.3428	-4.8218	-0.6714	1.6589	-3.6859	77.2394	52.4800 
805.128	0.0825	-0.0044	0.6274	1.4648	-3.2959	0.0610	1.6589	-3.7408	77.2504	52.2900 
805.144	0.1079	0.0229	0.6216	2.1973	-2.4414	2.8076	1.6754	-3.8013	77.2723	52.5300 
805.159	0.1021	0.0400	0.6133	2.5024	-3.9673	6.4087	1.7084	-3.8727	77.3218	52.3400 
805.159	0.0591	0.0425	0.5913	2.1362	-8.1787	8.9722	1.7358	-3.9606	77.3932	52.2900 
805.175	0.0137	0.0425	0.5391	1.4648	-10.8643	10.6201	1.7633	-4.0594	77.4811	52.3800 
805.175	-0.0068	0.0396	0.4717	1.4038	-9.8877	10.9863	1.7853	-4.1418	77.5635	52.5300 
805.175	-0.0288	0.0518	0.4492	0.8545	-5.2490	12.0239	1.8127	-4.1638	77.6459	52.7200 
805.207	-0.0298	0.0474	0.4624	1.7090	-0.7324	13.6719	1.8512	-4.1418	77.7393	52.4800 
805.207	0.0098	0.0332	0.5176	2.0142	3.3569	15.5029	1.8732	-4.0979	77.8711	52.3800 
805.253	0.0596	0.0127	0.5977	2.7466	5.5542	18.8599	1.8842	-4.0540	78.0469	52.5300 
805.284	0.0854	-0.0103	0.7075	3.6011	7.0190	21.1182	1.8896	-4.0100	78.2556	52.2900 
805.284	0.0518	0.0308	0.8105	4.3335	6.4087	22.9492	1.9116	-3.9551	78.4753	52.3800 
805.284	-0.0244	0.0029	0.9331	6.1035	6.5918	24.6582	1.9446	-3.8782	78.7115	52.5300 
805.284	0.0957	-0.1143	1.0435	8.1787	18.9209	12.8784	1.9666	-3.7244	78.9038	52.4800 
805.284	0.1465	-0.0522	1.2246	10.1929	30.2734	5.7373	2.0270	-3.4717	78.9917	52.2900 
805.284	0.0522	-0.0098	1.4946	11.3525	31.3721	7.4463	2.1149	-3.1531	79.0686	52.5300 
805.284	-0.0303	0.0337	1.7002	10.0708	19.5313	8.8501	2.2083	-2.9114	79.1510	52.2900 
805.284	-0.0796	0.0522	1.7158	6.6528	8.9111	9.0942	2.2797	-2.7740	79.2279	52.2900 
805.316	-0.0625	0.0728	1.6475	4.0894	0.7324	8.3008	2.3236	-2.7191	79.2883	52.6200 
805.347	-0.0176	0.1230	1.5586	2.1973	-3.7842	7.9346	2.3566	-2.7246	79.3433	52.6200 
805.347	-0.0396	0.1392	1.4668	0.1221	-4.8218	5.3101	2.3785	-2.7576	79.3707	52.4800 
805.347	-0.0469	0.1265	1.3647	-1.8311	-1.5869	-1.6479	2.3840	-2.7576	79.3323	52.2900 
805.347	-0.0146	0.1196	1.2686	-3.6621	7.2632	-8.9111	2.3730	-2.6862	79.2279	52.3800 
805.379	0.0254	0.0811	1.2520	-4.8828	14.2822	-13.0005	2.3456	-2.5378	79.0851	52.2900 
805.379	0.0381	0.0483	1.2446	-5.7983	14.5264	-13.0615	2.2961	-2.3840	78.9423	52.6200 
805.379	0.0322	0.0342	1.2290	-6.9580	9.2773	-10.0708	2.2247	-2.2632	78.8269	52.2900 
805.379	0.0269	-0.0142	1.1763	-8.1177	1.5869	-6.0425	2.1368	-2.2192	78.7610	52.2900 
805.410	0.0688	-0.0190	1.0889	-10.7422	-1.2817	-4.0283	2.0215	-2.2357	78.7225	52.4800 
805.410	0.1157	0.0396	1.0640	-12.3291	-0.1221	-2.9297	1.8951	-2.2577	78.6841	52.3800 
805.456	0.1099	0.1016	1.1011	-13.1836	-2.7466	1.2207	1.7798	-2.2961	78.6676	52.2900 
805.456	0.0952	0.1240	1.1079	-13.0005	-5.7983	3.7842	1.6754	-2.3676	78.6731	52.3800 
805.488	0.0947	0.1396	1.0996	-12.0239	-5.6763	4.6997	1.5820	-2.4445	78.6896	52.5300 
805.488	0.1108	0.1245	1.1230	-10.4370	-2.9907	4.6997	1.4996	-2.4994	78.7115	52.3800 
805.488	0.1616	0.0991	1.1440	-8.1787	-3.2349	1.1597	1.4337	-2.5598	78.7170	52.3400 
805.488	0.1958	0.0854	1.1313	-6.2256	-7.2632	-4.2114	1.3843	-2.6587	78.6731	52.3800 
805.488	0.1997	0.1001	1.0708	-5.0659	-13.7329	-7.2632	1.3568	-2.8235	78.5907	52.2900 
805.488	0.1606	0.0942	0.9712	-4.8218	-19.6533	-7.8735	1.3348	-3.0432	78.4918	52.4800 
805.519	0.1021	0.0781	0.8623	-4.6387	-22.9492	-8.9722	1.3184	-3.2904	78.3820	52.5300 
805.519	0.0649	0.0732	0.7534	-5.2490	-22.5220	-9.8877	1.2964	-3.5321	78.2611	52.3400 
805.519	0.0522	0.0898	0.6416	-5.7983	-20.5688	-8.6670	1.2854	-3.7463	78.1348	52.4800 
805.550	0.0381	0.1060	0.5703	-5.3101	-17.0288	-5.5542	1.2854	-3.9276	78.0249	52.3800 
805.550	0.0293	0.1094	0.5327	-5.6763	-14.5874	-2.7466	1.2909	-4.0759	77.9480	52.1000 
805.550	0.0347	0.1133	0.5137	-5.3101	-12.3291	-0.2441	1.3074	-4.2023	77.8876	52.5300 
805.582	0.0405	0.1108	0.5156	-4.4556	-11.7798	1.9531	1.3239	-4.3286	77.8491	52.4800 
805.582	0.0532	0.0952	0.5132	-3.7231	-11.9019	4.4556	1.3458	-4.4604	77.8436	52.2900 
805.613	0.0708	0.0859	0.5483	-2.1973	-10.4980	6.0425	1.3623	-4.5868	77.8656	52.3800 
805.613	0.0942	0.0659	0.6221	-0.7935	-7.6904	6.5308	1.3733	-4.6912	77.9095	52.3400 
805.613	0.1143	0.0508	0.7139	0.3052	-6.7139	5.4321	1.3843	-4.7845	77.9535	52.2900 
805.613	0.1245	0.0493	0.8003	0.4883	-7.6294	5.1270	1.4008	-4.8834	77.9974	52.2900 
805.659	0.1172	0.0396	0.8579	1.2207	-8.6060	5.3101	1.4172	-4.9878	78.0414	52.2900 
805.659	0.0601	0.0527	0.8984	1.3428	-7.9346	7.8125	1.4337	-5.0702	78.0963	52.2900 
805.675	-0.0474	-0.0298	0.9834	3.8452	-11.4136	5.0659	1.4502	-5.1361	78.1622	52.3400 
805.675	0.0605	0.0098	1.0679	4.5166	-7.5684	-2.5024	1.4832	-5.2020	78.1458	52.3800 
805.707	0.0986	-0.0205	1.1504	6.7139	-2.3804	0.0610	1.5326	-5.2405	78.1458	52.3800 
805.707	0.0962	-0.0518	1.3267	8.3008	3.1738	1.8921	1.5930	-5.2130	78.1732	52.4800 
805.707	0.0479	-0.1050	1.4712	8.4839	2.2583	0.4883	1.6425	-5.1746	78.2007	52.2900 
805.707	-0.0044	-0.1104	1.5044	8.4839	-0.9155	-4.2114	1.6974	-5.1471	78.1897	52.4800 
805.707	-0.0176	-0.1025	1.4370	7.6294	-1.4038	-4.3335	1.7413	-5.1251	78.1677	52.3800 
805.707	-0.0127	-0.0957	1.3506	6.8359	3.8452	-1.7090	1.7798	-5.0702	78.1622	52.1900 
805.722	-0.0049	-0.0991	1.3008	5.1270	13.0615	-0.1221	1.7963	-4.9329	78.1787	52.3400 
805.722	-0.0020	-0.0962	1.2930	3.2959	22.6440	0.3052	1.7963	-4.7021	78.2062	52.3800 
805.753	0.0127	-0.1084	1.3306	0.8545	30.4565	1.2817	1.7743	-4.3890	78.2501	52.5300 
805.753	0.0454	-0.1025	1.3667	-1.0376	32.0435	2.1973	1.7249	-4.0594	78.2996	52.3800 
805.753	0.0669	-0.0894	1.3579	-1.8311	30.3955	3.6621	1.6699	-3.7463	78.3600	52.1900 
805.769	0.0796	-0.0454	1.3193	-1.7090	26.4893	5.2490	1.6260	-3.4717	78.4259	52.3400 
805.801	0.0757	-0.0068	1.2832	-0.5493	23.0713	7.3242	1.5985	-3.2355	78.5028	52.1400 
805.801	0.0688	0.0063	1.2432	1.8921	19.1650	7.2021	1.5985	-3.0377	78.5797	52.2900 
805.832	0.0728	0.0112	1.2012	4.6997	16.9678	6.5918	1.6260	-2.8674	78.6511	52.2900 
805.832	0.0801	-0.0205	1.1709	7.6904	17.8223	5.6152	1.6809	-2.7026	78.7115	52.5300 
805.832	0.0967	-0.0640	1.1826	10.2539	17.4561	3.1128	1.7523	-2.5378	78.7665	52.2900 
805.832	0.1177	-0.0986	1.1855	11.7188	14.8315	-1.5259	1.8292	-2.4005	78.7885	52.3800 
805.832	0.1216	-0.1113	1.1519	12.3291	11.7188	-5.7983	1.9116	-2.2961	78.7610	52.3400 
805.878	0.1221	-0.1089	1.1069	11.5356	9.2773	-7.6294	1.9885	-2.2247	78.7170	52.4800 
805.910	0.1143	-0.0957	1.0518	10.2539	6.8359	-7.6294	2.0490	-2.1698	78.6676	52.1900 
805.910	0.0962	-0.0811	0.9839	7.9346	3.6011	-6.2866	2.0984	-2.1478	78.6182	52.1400 
805.910	0.0747	-0.0601	0.9072	6.2256	1.2817	-4.2725	2.1313	-2.1478	78.5907	52.2900 
805.910	0.0498	-0.0410	0.8315	4.7607	-0.1221	-1.7700	2.1478	-2.1533	78.5797	52.2900 
805.910	0.0181	-0.0249	0.7437	3.7231	-1.7090	-0.1221	2.1643	-2.1698	78.5797	52.3400 
805.910	0.0034	-0.0117	0.6592	3.8452	-2.5635	0.4272	2.1863	-2.1808	78.5852	52.1900 
805.940	0.0034	0.0005	0.5825	4.6387	-2.5024	0.1831	2.2137	-2.1973	78.5852	52.0000 
805.940	0.0190	0.0142	0.5317	5.1880	-0.6714	1.4648	2.2577	-2.2083	78.5852	52.3400 
805.940	0.0308	0.0239	0.5059	6.4087	2.6245	4.4556	2.3181	-2.1973	78.6127	52.1400 
805.956	0.0186	0.0171	0.5254	6.1646	3.9063	8.0566	2.3785	-2.1588	78.6731	52.1900 
805.972	0.0366	0.0063	0.5156	5.7373	5.7983	7.8735	2.4225	-2.1204	78.7500	52.2900 
805.972	0.0850	0.0361	0.5386	5.0659	8.2397	7.8125	2.4719	-2.0819	78.8214	52.1400 
805.987	0.0854	0.0532	0.5981	4.3945	8.0566	10.4370	2.5269	-2.0435	78.9038	52.1400 
806.003	0.0649	0.0469	0.6494	3.3569	5.0049	12.6953	2.5708	-2.0215	79.0082	52.2900 
806.003	0.0112	0.0288	0.6787	3.0518	0.0000	14.4043	2.6038	-2.0160	79.1290	52.0000 
806.003	-0.0088	0.0054	0.6870	3.2959	-2.9297	14.7705	2.6202	-2.0325	79.2609	52.1900 
806.019	0.0049	-0.0171	0.7119	3.6621	-2.2583	15.0146	2.6312	-2.0544	79.4037	52.1900 
806.050	0.0381	-0.0347	0.7505	4.1504	-1.1597	16.1743	2.6367	-2.0764	79.5630	52.1900 
806.050	0.0718	-0.0518	0.7891	5.0659	0.0000	17.5781	2.6422	-2.1039	79.7443	52.3400 
806.050	0.0674	-0.0493	0.8296	5.7373	0.4272	19.0430	2.6532	-2.1259	79.9365	52.1400 
806.081	0.0347	-0.0332	0.8730	4.7607	1.5259	19.3481	2.6642	-2.1313	80.1288	52.4800 
806.081	-0.0103	-0.0303	0.9507	3.7231	5.8594	19.4092	2.6752	-2.0819	80.3210	52.3400 
806.113	-0.0078	-0.0049	1.0923	2.5635	15.5640	14.9536	2.6752	-1.9446	80.4803	52.0000 
806.113	0.0127	0.0508	1.2485	2.0142	19.4092	12.5122	2.6862	-1.7523	80.5902	52.2900 
806.113	0.0029	0.1108	1.3955	1.8921	18.4326	14.0381	2.7081	-1.5601	80.7001	52.1400 
806.128	-0.0327	0.1528	1.4819	1.8311	15.4419	19.6533	2.7411	-1.3953	80.8429	52.2900 
806.128	-0.0718	0.1221	1.5103	2.6245	16.7847	22.5830	2.7740	-1.2195	81.0297	52.2900 
806.144	-0.0981	0.0947	1.4868	3.4790	17.9443	19.1650	2.8125	-1.0272	81.2000	52.1900 
806.144	-0.1196	0.0679	1.4365	4.2114	19.7144	11.0474	2.8510	-0.8130	81.2988	52.1900 
806.144	-0.1138	0.0518	1.3804	3.8452	19.0430	2.4414	2.8894	-0.5878	81.3153	52.2900 
806.159	-0.0850	0.0435	1.2974	3.4790	18.8599	-1.8921	2.9224	-0.3735	81.2769	52.1900 
806.159	-0.0479	0.0303	1.2837	1.5869	19.0430	-2.6245	2.9333	-0.1593	81.2274	52.2900 
806.175	-0.0083	0.0244	1.2783	-0.4883	16.7847	-0.9766	2.9224	0.0110	81.2000	52.1900 
806.175	0.0015	0.0186	1.2778	-2.1973	11.5356	0.7935	2.8949	0.1428	81.1835	52.2900 
806.191	-0.0151	0.0313	1.2573	-3.7231	7.3853	1.1597	2.8510	0.2252	81.1725	52.1900 
806.206	-0.0645	0.0903	1.2861	-5.7373	7.5684	3.6011	2.8015	0.3131	81.1670	52.2900 
806.206	-0.1084	0.1143	1.3359	-6.8970	8.4839	9.8877	2.7521	0.4120	81.2054	52.2900 
806.237	-0.1123	0.1025	1.3921	-7.3853	13.6108	11.0474	2.6917	0.5493	81.2769	52.1900 
806.237	-0.0610	0.0737	1.4795	-6.6528	21.3623	3.9673	2.6257	0.7526	81.3098	52.1400 
806.237	0.0288	0.0854	1.5635	-5.4932	18.6157	-6.5308	2.5708	0.9503	81.2439	52.2900 
806.284	0.0972	0.1353	1.4829	-3.1738	-1.2817	-12.7563	2.5433	0.9668	81.0901	52.2900 
806.284	0.0938	0.1294	1.2339	-2.1362	-11.5356	-10.8643	2.5378	0.8405	80.9363	52.1400 
806.316	0.0840	0.0991	1.0635	-2.8076	-11.4746	-9.5825	2.5323	0.6976	80.7935	52.0000 
806.316	0.0708	0.0737	0.9790	-4.4556	-11.1084	-8.1177	2.4994	0.5603	80.6726	52.1900 
806.316	0.0776	0.0674	0.9316	-5.7373	-13.1836	-7.5073	2.4500	0.4065	80.5627	52.3800 
806.316	0.0923	0.0708	0.8735	-7.5073	-17.3950	-6.1035	2.3895	0.2087	80.4584	52.3800 
806.331	0.1040	0.0854	0.8081	-9.2163	-22.4609	-3.2349	2.3181	-0.0385	80.3760	52.2900 
806.331	0.1060	0.1108	0.7290	-9.4604	-28.6255	0.5493	2.2577	-0.3571	80.3210	52.2900 
806.363	0.0869	0.1162	0.6440	-8.8501	-32.4097	4.5166	2.2083	-0.7251	80.2991	52.2900 
806.363	0.0605	0.1069	0.5601	-7.9346	-33.8135	6.8359	2.1698	-1.0986	80.2991	52.3800 
806.363	0.0386	0.0991	0.4824	-6.9580	-30.8838	7.7515	2.1478	-1.4447	80.3101	52.0000 
806.394	0.0435	0.0835	0.4380	-5.4321	-25.0854	7.3853	2.1423	-1.7413	80.3156	52.1000 
806.394	0.0391	0.0679	0.4351	-3.6621	-19.7144	6.7139	2.1423	-1.9775	80.3320	52.3400 
806.394	0.0078	0.0571	0.4575	-1.8311	-17.5781	6.5308	2.1478	-2.1588	80.3430	52.1000 
806.409	-0.0303	0.0303	0.4526	-0.4883	-17.0288	3.1738	2.1588	-2.3016	80.3375	52.3400 
806.409	-0.0464	0.0317	0.4385	0.2441	-16.2354	-0.9155	2.1698	-2.4170	80.2881	52.1400 
806.409	-0.0259	0.0410	0.4468	0.7324	-15.1367	-4.0283	2.1973	-2.5323	80.2002	52.2900 
806.425	0.0132	0.0605	0.5264	0.4272	-11.0474	-6.5918	2.2302	-2.6367	80.0848	52.1400 
806.456	0.0571	0.0747	0.6255	0.3662	-11.5356	-7.8735	2.2632	-2.7576	79.9585	52.1400 
806.456	0.0908	0.0894	0.7021	0.4272	-13.9771	-6.8970	2.2961	-2.9114	79.8431	52.1000 
806.456	0.0957	0.0928	0.7476	1.1597	-16.2964	-3.4180	2.3346	-3.0927	79.7498	52.0000 
806.487	0.0518	0.0625	0.7974	1.8921	-16.5405	1.7090	2.3730	-3.2739	79.7058	52.1900 
806.487	-0.0508	-0.0483	0.8901	3.9673	-19.3481	-0.2441	2.3840	-3.4277	79.7003	52.2900 
806.487	-0.0215	-0.0566	1.0098	5.1880	-9.2163	-13.6719	2.4060	-3.5156	79.5850	52.1000 
806.519	0.0610	-0.0508	1.3003	6.4697	-0.6714	-12.7563	2.4445	-3.5211	79.4421	52.1400 
806.519	0.1294	-0.0439	1.6279	8.4229	-4.8218	-4.0283	2.5049	-3.5541	79.3652	52.2900 
806.519	0.1050	-0.0649	1.8960	9.6436	-16.5405	6.3477	2.5708	-3.6914	79.3927	52.2900 
806.550	-0.0200	-0.1133	1.9282	6.4697	-16.1133	8.9722	2.6038	-3.8397	79.4696	52.3800 
806.550	-0.1226	-0.0679	1.8994	1.1597	-8.3618	6.8970	2.5983	-3.9056	79.5245	52.1400 
806.550	-0.1328	-0.0591	1.8242	-3.8452	-10.2539	3.7231	2.5433	-3.9441	79.5520	52.2900 
806.566	-0.0527	-0.1201	1.5518	-5.8594	-19.8364	2.1973	2.4500	-4.0924	79.5630	52.3400 
806.566	0.0347	-0.1748	1.3569	-7.2632	-12.0239	0.6104	2.3236	-4.2133	79.5795	52.2900 
806.597	0.0708	-0.1802	1.3247	-9.2163	-4.2114	1.2817	2.1753	-4.2627	79.6069	52.1000 
806.597	0.0752	-0.1802	1.3413	-9.8877	-1.8311	2.4414	2.0215	-4.2792	79.6509	52.2900 
806.597	0.0684	-0.1519	1.3325	-9.5825	-2.5635	1.2817	1.8677	-4.2957	79.6783	52.2900 
806.612	0.0791	-0.0898	1.3076	-8.7891	-4.2114	0.1831	1.7358	-4.3286	79.6893	52.2900 
806.612	0.0898	-0.0190	1.2656	-7.2632	-5.5542	-1.2817	1.6370	-4.3781	79.6619	52.1000 
806.660	0.0981	0.0249	1.1851	-4.5166	-5.3101	-2.0752	1.5820	-4.4330	79.6234	52.1900 
806.660	0.0825	0.0503	1.1094	-1.7090	-2.8076	-1.8921	1.5656	-4.4659	79.5740	52.2900 
806.660	0.0586	0.0527	1.0215	0.8545	-0.7324	-0.4272	1.5765	-4.4769	79.5300	52.2900 
806.706	0.0420	0.0400	0.9438	2.4414	1.0986	-0.1221	1.6040	-4.4604	79.4971	52.0000 
806.706	0.0391	0.0225	0.8716	3.1128	2.4414	0.0000	1.6370	-4.4275	79.4696	52.1400 
806.722	0.0601	0.0063	0.8364	3.5400	2.9907	0.0000	1.6644	-4.3890	79.4476	52.1400 
806.722	0.0903	-0.0044	0.7959	3.2959	2.2583	0.7935	1.6919	-4.3726	79.4312	52.0000 
806.722	0.1309	-0.0303	0.7803	3.3569	1.0376	1.8921	1.7029	-4.3890	79.4421	52.2900 
806.754	0.1484	-0.0532	0.7690	3.1128	-0.3052	2.3804	1.6974	-4.4220	79.4641	52.2900 
806.754	0.1543	-0.0791	0.7803	3.4790	-0.4883	1.8921	1.6864	-4.4714	79.4916	52.1000 
806.816	0.1362	-0.0986	0.7939	3.4790	-2.5635	2.1362	1.6699	-4.5264	79.5300	52.1900 
806.816	0.1104	-0.1128	0.7759	3.8452	-3.6621	2.7466	1.6479	-4.5868	79.5740	52.1400 
806.816	0.0879	-0.1084	0.7378	3.7231	-3.8452	3.6011	1.6260	-4.6417	79.6289	52.1400 
806.816	0.0625	-0.0918	0.7036	3.2959	-2.5635	3.4180	1.5985	-4.6802	79.6838	52.1000 
806.816	0.0576	-0.0571	0.6523	2.7466	-1.6479	4.2114	1.5820	-4.6967	79.7278	52.1000 
806.816	0.0674	-0.0239	0.6323	2.1362	-1.4038	6.4087	1.5710	-4.7186	79.7772	52.2900 
806.816	0.0835	0.0044	0.6025	1.9531	-2.1362	9.3994	1.5710	-4.7571	79.8431	52.2900 
806.816	0.0864	0.0303	0.5781	1.5869	-3.9063	13.9160	1.5820	-4.8120	79.9420	52.1000 
806.847	0.0688	0.0322	0.5366	0.9766	-5.9204	16.9678	1.5930	-4.8944	80.0684	52.1900 
806.847	0.0576	0.0347	0.4951	0.6104	-5.3101	18.7988	1.5930	-4.9658	80.2112	52.1000 
806.847	0.0688	0.0313	0.4790	-0.0610	-2.4414	20.1416	1.5930	-5.0208	80.3650	52.2900 
806.925	0.0698	0.0244	0.4912	-0.1831	1.0376	21.9727	1.5820	-5.0427	80.5408	52.1000 
806.925	0.0625	0.0015	0.5308	-0.0610	3.5400	23.7427	1.5546	-5.0317	80.7495	52.1400 
806.925	0.0479	-0.0342	0.5815	1.6479	4.6387	23.1934	1.5216	-4.9988	80.9692	52.2900 
806.925	0.0356	-0.0767	0.6318	3.6621	6.7139	19.8364	1.4886	-4.9329	81.1780	52.2900 
806.925	0.0308	-0.0840	0.6831	5.4321	8.5449	17.6392	1.4722	-4.8395	81.3647	52.1400 
806.925	-0.0034	-0.0557	0.7300	6.5308	9.8877	16.6016	1.4832	-4.7296	81.5240	52.1900 
806.925	-0.0464	-0.0806	0.8320	6.2256	12.5122	17.8833	1.4941	-4.5703	81.6888	52.0000 
806.925	0.0391	-0.0986	0.9868	6.1035	24.7192	7.9346	1.4996	-4.3396	81.7987	52.1400 
806.925	0.1597	-0.0269	1.3760	6.2866	41.1377	3.3569	1.5381	-3.9771	81.8262	52.1900 
806.957	0.2104	0.0356	1.8335	9.3384	37.1094	3.9063	1.6095	-3.5980	81.8372	52.1900 
806.957	0.1416	0.0918	2.0903	11.0474	21.0571	8.8501	1.7194	-3.3563	81.8756	52.2900 
806.957	0.0010	0.0884	1.9985	9.2773	3.1738	8.3008	1.8182	-3.2684	81.9196	52.1900 
806.957	-0.0532	0.1782	1.6274	9.2163	-11.5356	3.6621	1.9281	-3.3234	81.8866	52.1000 
806.988	-0.0278	0.1963	1.2759	8.5449	-2.4414	5.8594	2.0544	-3.3673	81.8536	52.1000 
806.988	-0.0210	0.1182	1.1621	7.4463	14.7095	3.6011	2.1588	-3.2410	81.8262	52.1000 
806.988	-0.0298	0.0669	1.1997	6.2256	24.3530	-1.0986	2.2357	-2.9883	81.7767	52.1000 
806.988	-0.0054	0.0386	1.2715	4.0894	23.9868	-6.2866	2.2852	-2.7191	81.6833	52.1400 
807.035	0.0415	0.0278	1.3359	1.6479	20.6909	-5.9204	2.3016	-2.4994	81.5845	52.2900 
807.035	0.0562	0.0254	1.3730	0.0610	17.1509	-4.0283	2.3016	-2.3126	81.5076	52.1000 
807.035	0.0186	0.0034	1.3877	-1.2817	11.1084	-2.6855	2.2852	-2.1808	81.4417	52.1400 
807.050	-0.0166	-0.0137	1.2954	-1.5869	6.4697	-4.2725	2.2577	-2.0874	81.3757	52.1900 
807.066	-0.0078	-0.0010	1.1895	-3.4180	8.3618	-5.6763	2.2137	-1.9995	81.2823	52.2900 
807.066	0.0171	0.0303	1.1680	-5.0049	13.2446	-4.3335	2.1588	-1.8677	81.1945	52.1000 
807.066	0.0327	0.0513	1.2056	-6.5308	15.8081	-1.0986	2.0984	-1.7084	81.1340	52.1000 
807.112	0.0391	0.0605	1.2559	-7.6904	14.8926	-0.1831	2.0270	-1.5546	81.0901	52.1000 
807.112	0.0508	0.0596	1.2554	-8.9111	8.1787	-1.0376	1.9501	-1.4612	81.0406	51.8600 
807.112	0.0903	0.0752	1.1841	-9.5215	3.3569	-4.5776	1.8677	-1.4282	80.9583	52.1000 
807.144	0.1333	0.0894	1.0957	-9.2163	1.8921	-7.6904	1.7853	-1.4392	80.8429	52.1000 
807.144	0.1499	0.0825	1.0503	-8.8501	2.6245	-9.7656	1.7139	-1.4502	80.7056	52.1900 
807.144	0.1436	0.0737	1.0161	-8.1787	0.5493	-12.9395	1.6425	-1.4722	80.5353	52.1000 
807.144	0.1367	0.0479	0.9590	-7.5073	-4.6997	-15.1978	1.5765	-1.5436	80.3540	52.1400 
807.176	0.1299	0.0483	0.8760	-7.5684	-8.5449	-14.3433	1.5161	-1.6534	80.1672	52.1000 
807.176	0.1187	0.0317	0.7861	-7.3853	-11.7798	-12.7563	1.4502	-1.8018	80.0024	51.9500 
807.176	0.1094	0.0166	0.6978	-7.9346	-13.7329	-11.2305	1.3733	-1.9720	79.8541	52.1000 
807.176	0.0942	0.0190	0.6113	-8.7280	-16.1133	-10.1318	1.2909	-2.1643	79.7168	52.1000 
807.207	0.0762	0.0342	0.5273	-9.1553	-16.9067	-8.0566	1.2140	-2.3676	79.5959	52.1000 
807.207	0.0444	0.0371	0.4526	-9.6436	-16.9067	-7.0801	1.1371	-2.5598	79.4751	51.8600 
807.238	0.0151	0.0356	0.3789	-9.3384	-15.1367	-7.9346	1.0712	-2.7191	79.3488	52.1000 
807.238	-0.0034	0.0430	0.3374	-8.3618	-13.4888	-10.4980	1.0272	-2.8400	79.1840	52.1900 
807.238	-0.0122	0.0522	0.2954	-6.8970	-10.2539	-11.8408	1.0107	-2.9279	78.9862	52.1400 
807.269	-0.0078	0.0371	0.3276	-5.3101	-5.4321	-13.1836	0.9998	-2.9663	78.7885	52.1000 
807.269	0.0000	0.0234	0.4160	-3.7842	-0.7324	-15.1367	0.9888	-2.9663	78.5907	51.8600 
807.269	0.0166	0.0176	0.5479	-1.5869	0.5493	-16.6626	0.9833	-2.9498	78.3929	52.1400 
807.269	0.0410	0.0254	0.6646	-0.2441	-0.0610	-16.2354	0.9943	-2.9443	78.2007	52.1000 
807.269	0.0508	0.0435	0.7666	0.3662	0.7935	-13.7939	1.0162	-2.9443	78.0194	52.3400 
807.316	0.0425	0.0527	0.8579	0.3662	3.4180	-11.4746	1.0382	-2.9169	77.8656	52.1900 
807.316	0.0059	0.0615	0.9331	0.7935	6.5308	-10.1318	1.0657	-2.8510	77.7173	52.1400 
807.316	-0.0444	0.0249	1.0200	3.6011	8.1787	-17.2119	1.1096	-2.7411	77.5360	52.1000 
807.348	-0.0146	0.0347	1.1626	5.6152	16.0522	-21.1792	1.1700	-2.5708	77.2888	52.0000 
807.348	0.0225	-0.0117	1.3604	7.6294	19.1040	-20.9351	1.2469	-2.3730	77.0581	52.1000 
807.348	0.0737	-0.0454	1.6221	8.4229	16.5405	-16.4185	1.3184	-2.1918	76.8768	52.1400 
807.348	0.0459	-0.0635	1.7695	7.9956	10.2539	-10.4370	1.3898	-2.0709	76.7505	52.0000 
807.378	-0.0024	-0.0479	1.7969	6.7749	5.1880	-5.9204	1.4392	-1.9940	76.6681	52.1000 
807.378	-0.0566	-0.0107	1.6509	4.6387	0.1831	0.3662	1.4832	-1.9611	76.6296	52.0000 
807.378	-0.0898	-0.0518	1.3892	2.8687	-0.3662	6.9580	1.4996	-1.9391	76.6681	52.1400 
807.378	-0.0708	-0.1104	1.2373	1.0986	10.6201	7.8735	1.4722	-1.8292	76.7450	52.1900 
807.410	-0.0195	-0.1230	1.2285	-0.5493	21.7285	7.3853	1.4282	-1.6205	76.8329	52.1000 
807.410	0.0361	-0.1230	1.2983	-0.7324	25.0244	8.2397	1.3733	-1.3733	76.9208	52.1400 
807.441	0.0732	-0.1206	1.3481	0.4883	21.4844	8.3618	1.3348	-1.1591	77.0197	52.0000 
807.441	0.0864	-0.1001	1.3472	2.6245	16.5405	6.1646	1.3184	-0.9943	77.0911	52.0000 
807.441	0.0737	-0.0967	1.3794	5.0659	12.4512	4.0894	1.3293	-0.8789	77.1405	52.1000 
807.456	0.0347	-0.0977	1.4961	8.7280	10.1929	-1.2817	1.3733	-0.7800	77.1405	52.1000 
807.456	-0.0015	-0.1250	1.6128	11.2915	8.4839	-7.2021	1.4502	-0.6812	77.0856	52.1000 
807.488	0.0054	-0.1240	1.6177	12.2681	4.9438	-10.6201	1.5326	-0.6207	76.9867	52.1400 
807.488	0.0566	-0.0918	1.4961	12.2070	-0.1831	-7.2632	1.6260	-0.6097	76.8988	52.1400 
807.488	0.0977	-0.0625	1.2866	10.8643	0.0000	-1.8311	1.7139	-0.6372	76.8604	52.2900 
807.519	0.1309	-0.0596	1.1724	8.8501	4.6387	3.4180	1.7798	-0.6372	76.8823	52.1400 
807.519	0.1323	-0.0723	1.1157	6.4697	6.9580	5.4932	1.8182	-0.6042	76.9373	52.1900 
807.519	0.1323	-0.0786	1.0732	4.0894	3.4180	3.6621	1.8237	-0.5988	76.9812	52.1000 
807.550	0.1494	-0.0830	0.9873	2.0142	-3.0518	0.6104	1.8127	-0.6592	77.0032	52.1000 
807.550	0.1753	-0.0786	0.8872	0.6104	-8.2397	-3.6011	1.7798	-0.7855	76.9812	52.0000 
807.550	0.1763	-0.0635	0.7930	0.7324	-12.1460	-5.9814	1.7523	-0.9668	76.9318	52.0000 
807.550	0.1382	-0.0537	0.7012	1.5869	-15.1367	-6.3477	1.7303	-1.1755	76.8713	52.1000 
807.581	0.0718	-0.0503	0.6182	3.3569	-18.1885	-5.7373	1.7194	-1.3898	76.8164	52.2900 
807.581	0.0210	-0.0483	0.5322	5.6152	-19.9585	-5.6763	1.7303	-1.5930	76.7615	52.2900 
807.597	-0.0166	-0.0283	0.4448	7.2021	-18.6157	-5.0049	1.7633	-1.7633	76.7010	52.1900 
807.597	-0.0288	-0.0034	0.3813	9.0332	-13.0005	-3.3569	1.8347	-1.8787	76.6406	52.0000 
807.597	-0.0200	0.0093	0.3862	10.4980	-5.8594	-1.4648	1.9336	-1.9171	76.5857	52.0000 
807.628	0.0005	0.0078	0.4360	10.9253	0.6104	-0.0610	2.0380	-1.9171	76.5472	52.2900 
807.628	0.0293	0.0073	0.5269	10.4370	4.6387	0.6714	2.1368	-1.8787	76.5308	52.3400 
807.644	0.0464	-0.0093	0.6392	9.8877	6.4697	2.1973	2.2192	-1.8292	76.5363	52.1900 
807.644	0.0474	-0.0249	0.7354	8.9722	5.4321	4.2114	2.2852	-1.7853	76.5692	52.1900 
807.659	0.0308	-0.0293	0.8018	7.7515	2.1362	6.6528	2.3346	-1.7578	76.6187	52.2900 
807.675	0.0127	-0.0508	0.8496	6.1035	-4.2725	9.5825	2.3676	-1.7853	76.7065	52.0000 
807.691	0.0513	-0.0708	0.8179	4.2725	-7.3853	8.6670	2.3730	-1.8622	76.7999	52.0000 
807.691	0.1235	-0.0381	0.7959	2.9907	-6.5308	7.2632	2.3676	-1.9720	76.8658	52.0000 
807.691	0.1167	-0.0522	0.7910	2.0752	-6.3477	8.2397	2.3566	-2.0764	76.9427	52.1900 
807.738	0.0991	-0.0845	0.8135	2.6855	-7.6904	6.8970	2.3291	-2.1808	77.0251	52.0000 
807.738	0.0835	-0.1050	0.8013	4.2725	-12.4512	4.3335	2.3126	-2.3236	77.0911	52.1000 
807.738	0.0635	-0.0972	0.7578	4.9438	-13.9771	3.1738	2.3016	-2.4774	77.1350	52.2900 
807.738	0.0493	-0.0605	0.7324	6.1035	-12.3901	2.7466	2.3071	-2.6147	77.1680	52.1000 
807.769	0.0112	0.0127	0.7583	6.4087	-9.2773	4.8218	2.3566	-2.7136	77.1844	52.1000 
807.769	0.0166	0.0288	0.8628	8.5449	-3.4790	7.0801	2.4280	-2.7576	77.2119	52.1900 
807.769	0.0762	0.0444	1.0273	10.6201	4.1504	7.3242	2.5214	-2.7411	77.2504	52.1000 
807.769	0.1118	0.0591	1.2437	13.1226	13.3057	7.5684	2.6477	-2.6532	77.2998	52.0000 
807.800	0.1230	0.0522	1.5244	15.9912	21.7285	5.2490	2.7960	-2.4719	77.3383	52.1900 
807.800	0.1089	0.0396	1.7822	15.5029	18.7378	-2.0142	2.9388	-2.2742	77.3218	52.1000 
807.800	0.0908	0.0664	1.7534	13.6108	-1.0376	-8.7280	3.0762	-2.2302	77.2229	51.9500 
807.847	0.0923	0.1250	1.4766	11.6577	-16.6626	-12.3901	3.2080	-2.3676	77.0526	52.1400 
807.847	0.0952	0.1416	1.2593	9.3384	-13.8550	-8.7891	3.3289	-2.5269	76.8988	52.1000 
807.847	0.0601	0.0874	1.1919	5.8594	-4.8828	-5.7373	3.4058	-2.5983	76.7889	52.2900 
807.847	0.0420	0.0435	1.1899	3.4180	1.8311	-5.8594	3.4442	-2.5873	76.7010	52.1000 
807.878	0.0693	0.0234	1.1963	1.5259	6.4087	-8.4229	3.4497	-2.5323	76.5967	52.2900 
807.878	0.0942	0.0288	1.2339	0.4883	10.9253	-9.5825	3.4497	-2.4335	76.4868	52.2900 
807.878	0.0806	0.0469	1.2681	0.2441	9.5215	-8.8501	3.4442	-2.3346	76.3770	52.2900 
807.894	0.0728	0.0630	1.2563	-0.1221	2.5635	-7.2021	3.4442	-2.2906	76.2726	52.0000 
807.894	0.0752	0.0811	1.1563	-0.7935	-1.7700	-3.9673	3.4442	-2.3071	76.1957	52.1400 
807.925	0.0850	0.0957	1.0918	-1.2817	-0.0610	-1.2207	3.4387	-2.3236	76.1353	52.1000 
807.957	0.0942	0.1016	1.0601	-1.7090	3.9063	0.6104	3.4332	-2.3126	76.1023	52.1000 
807.972	0.0854	0.0815	1.0693	-2.0752	5.9814	1.2207	3.4222	-2.2742	76.0858	52.1000 
807.972	0.1152	0.0562	1.0625	-2.0142	6.6528	-1.5869	3.3948	-2.2302	76.0529	52.1000 
807.972	0.1465	0.0474	1.0679	-2.4414	6.0425	-4.6387	3.3673	-2.1918	75.9979	52.2900 
807.988	0.1704	0.0483	1.0596	-2.6855	1.8311	-6.2866	3.3398	-2.1973	75.9210	52.3400 
807.988	0.1675	0.0420	1.0078	-2.7466	-2.6855	-8.3618	3.3069	-2.2522	75.8221	51.8100 
807.988	0.1719	0.0586	0.9478	-2.8687	-4.6387	-9.5825	3.2794	-2.3346	75.7068	52.1900 
807.988	0.1758	0.0786	0.9102	-2.7466	-5.7983	-8.4839	3.2629	-2.4335	75.5914	52.1000 
808.003	0.1758	0.0903	0.8711	-3.1128	-7.6904	-7.4463	3.2520	-2.5543	75.4816	52.1000 
808.003	0.1782	0.1084	0.8359	-2.9907	-8.9722	-7.7515	3.2465	-2.6917	75.3717	52.1400 
808.035	0.1748	0.1167	0.8096	-2.3804	-10.5591	-8.7891	3.2465	-2.8455	75.2509	52.1900 
808.035	0.1772	0.1226	0.7983	-2.3193	-10.4980	-9.2773	3.2574	-3.0048	75.1190	52.1000 
808.035	0.1504	0.1167	0.7817	-0.9155	-11.4746	-8.4229	3.2739	-3.1586	74.9927	52.1400 
808.050	0.1377	0.1235	0.7607	-1.0986	-12.0850	-8.1787	3.3014	-3.3179	74.8663	52.1000 
808.066	0.1484	0.1411	0.7349	-0.8545	-12.8784	-6.2256	3.3344	-3.4882	74.7510	52.3400 
808.081	0.1802	0.1704	0.7227	-0.4272	-13.1226	-4.2114	3.3838	-3.6804	74.6521	52.1000 
808.097	0.2041	0.2075	0.7129	-0.3052	-13.7939	-0.9766	3.4497	-3.8892	74.5752	52.1400 
808.097	0.2007	0.2129	0.7402	0.5493	-14.7705	1.8921	3.5211	-4.1034	74.5258	52.0000 
808.128	0.1631	0.1924	0.7773	1.1597	-15.8081	2.8687	3.5925	-4.3121	74.4928	52.0000 
808.128	0.1367	0.1357	0.8257	2.3804	-17.3950	1.8311	3.6475	-4.5209	74.4653	52.1900 
808.128	0.1226	0.0933	0.8608	2.6855	-19.1650	0.3052	3.6969	-4.7296	74.4324	52.2900 
808.128	0.1191	0.0820	0.8774	2.5635	-19.8364	1.5869	3.7299	-4.9438	74.4049	51.9500 
808.159	0.1108	0.0796	0.8901	1.8311	-19.7754	5.2490	3.7573	-5.1636	74.4104	52.3400 
808.159	0.1060	0.1226	0.9048	0.3052	-19.0430	8.4229	3.7738	-5.3668	74.4379	52.1000 
808.159	0.1411	0.1543	0.9370	-0.9766	-17.2119	10.3149	3.7903	-5.5646	74.4873	52.1000 
808.159	0.1958	0.2061	0.9624	-1.4038	-18.1274	10.6812	3.8068	-5.7788	74.5422	52.1400 
808.207	0.2490	0.1968	0.9404	-0.6714	-21.3013	10.4980	3.8397	-6.0425	74.5917	52.0000 
808.222	0.1255	0.1548	1.0322	2.9907	-22.3389	18.9819	3.8672	-6.2952	74.7015	52.1000 
808.238	-0.0029	-0.1836	1.2979	6.7749	-21.4233	5.7373	3.8782	-6.4929	74.8114	52.1400 
808.238	0.0308	-0.2456	1.4258	5.3101	-24.4751	-9.8877	3.8617	-6.6962	74.7729	52.1400 
808.238	0.1030	-0.2095	1.4746	2.0142	-21.7896	-7.3242	3.8232	-6.8939	74.7070	52.1400 
808.270	0.1509	-0.0957	1.5815	-2.1973	-25.2075	5.1880	3.7628	-7.1246	74.7290	52.1000 
808.270	0.0410	-0.0698	1.5752	-4.3945	-32.2266	13.3057	3.6749	-7.4103	74.8389	52.1400 
808.301	-0.0845	-0.1440	1.3774	-6.1646	-28.8696	4.0283	3.5541	-7.6575	74.9048	51.8600 
808.301	-0.0537	-0.1577	1.2744	-7.7515	-14.8315	-6.6528	3.4222	-7.7783	74.8828	52.1900 
808.301	0.0234	-0.1870	1.3262	-9.2773	-8.4839	-8.1177	3.2739	-7.8223	74.8279	52.2900 
808.301	0.0957	-0.2368	1.3530	-11.4136	-8.1787	-8.6670	3.0981	-7.8772	74.7839	52.1900 
808.301	0.0947	-0.2563	1.4360	-14.2212	-3.5400	-6.2256	2.8949	-7.9047	74.7620	52.1000 
808.347	0.0527	-0.2256	1.6265	-16.4795	-1.8311	-0.6104	2.6697	-7.8937	74.7784	52.2900 
808.363	0.0322	-0.1465	1.7456	-17.4561	-6.5918	3.5400	2.4445	-7.9102	74.8279	52.1000 
808.363	0.0454	-0.0415	1.7358	-16.6016	-11.6577	5.3711	2.2357	-7.9761	74.8773	52.1400 
808.363	0.0605	0.0342	1.5693	-14.6484	-19.2871	5.4932	2.0709	-8.1134	74.9158	52.1000 
808.363	0.0630	0.0186	1.2612	-10.0708	-20.2026	5.0049	1.9501	-8.2947	74.9487	52.1400 
808.394	0.0449	-0.0308	1.0332	-6.6528	-5.1270	0.0610	1.8567	-8.3551	74.9542	52.1900 
808.394	0.0234	-0.0781	0.9697	-3.9063	9.1553	-6.5308	1.7798	-8.2507	74.9213	52.2900 
808.394	0.0479	-0.1089	0.9702	-1.2817	14.8926	-12.8174	1.7303	-8.0750	74.8389	52.0000 
808.394	0.0908	-0.0947	0.9731	0.2441	13.7329	-15.9912	1.7029	-7.9102	74.7125	52.1000 
808.394	0.1309	-0.0601	0.9570	0.3052	8.7891	-16.1133	1.6919	-7.8003	74.5697	52.3400 
808.410	0.1587	-0.0210	0.9482	1.2207	1.0986	-13.3667	1.6974	-7.7673	74.4379	52.1400 
808.425	0.1567	0.0088	0.9180	1.4038	-5.7373	-9.4604	1.7194	-7.8168	74.3335	52.1000 
808.425	0.1563	0.0171	0.8794	2.2583	-9.2773	-6.5308	1.7468	-7.9102	74.2566	52.1000 
808.425	0.1665	0.0137	0.8354	1.7090	-9.6436	-4.8828	1.7688	-8.0255	74.2017	52.1000 
808.441	0.2026	-0.0010	0.8052	2.3804	-6.5308	-5.0049	1.7908	-8.1299	74.1522	52.1900 
808.441	0.2446	-0.0073	0.8135	2.1973	-5.4321	-4.6387	1.8073	-8.2288	74.1138	51.9500 
808.456	0.2642	-0.0190	0.8042	2.3193	-6.7749	-1.7700	1.8182	-8.3496	74.1028	52.1900 
808.488	0.2393	-0.0288	0.7856	2.3804	-6.5918	1.2207	1.8237	-8.4760	74.1248	52.1400 
808.488	0.1953	-0.0303	0.7510	1.5259	-7.1411	3.4790	1.8127	-8.5858	74.1687	52.1000 
808.488	0.1836	-0.0391	0.7188	0.7935	-7.0190	2.3804	1.7908	-8.6902	74.2181	52.2900 
808.488	0.2041	-0.0229	0.6782	-0.1221	-5.4321	1.6479	1.7688	-8.7946	74.2456	52.0000 
808.550	0.2563	-0.0107	0.6538	-0.3052	-3.6011	2.7466	1.7468	-8.9044	74.2841	52.0000 
808.550	0.3027	0.0063	0.6357	-0.4272	-2.7466	6.1035	1.7249	-9.0308	74.3500	52.1000 
808.550	0.3179	0.0200	0.6455	-0.1221	-2.3804	10.0098	1.7084	-9.1571	74.4489	52.1900 
808.550	0.2983	0.0391	0.6597	-0.6104	-2.8687	12.2070	1.6919	-9.2834	74.5697	52.1900 
808.582	0.2666	0.0488	0.7026	-0.0610	-1.7700	13.0005	1.6809	-9.3823	74.6960	52.1000 
808.582	0.2173	0.0391	0.7656	0.4272	0.1831	12.7563	1.6699	-9.4373	74.8169	51.8600 
808.582	0.1880	0.0098	0.8472	1.1597	3.0518	11.6577	1.6589	-9.4373	74.9377	52.1000 
808.613	0.1885	-0.0156	0.9390	2.1973	5.2490	9.5825	1.6479	-9.4043	75.0421	51.9500 
808.613	0.2095	-0.0264	1.0132	3.2959	9.0942	8.0566	1.6425	-9.3439	75.1355	52.2900 
808.613	0.2490	-0.0552	1.1152	5.2490	14.8315	8.7891	1.6534	-9.2285	75.2344	52.1000 
808.613	0.2764	-0.0801	1.2378	6.5918	17.1509	11.7188	1.6644	-9.0857	75.3662	52.1900 
808.660	0.2681	-0.0996	1.3545	7.9956	13.1226	14.0381	1.6864	-8.9648	75.5255	52.1000 
808.660	0.2036	-0.0396	1.4727	7.4463	7.6904	14.2212	1.7139	-8.8770	75.6793	52.1000 
808.660	0.1138	0.0635	1.6099	8.3008	5.9814	16.2964	1.7688	-8.7946	75.8167	52.1000 
808.660	0.0449	0.0864	1.7314	11.9019	6.2866	16.9678	1.8567	-8.6957	75.9650	52.1000 
808.675	0.0132	0.0571	1.6729	15.8081	0.3052	14.0381	1.9885	-8.6353	76.0858	52.1400 
808.675	-0.0698	0.0601	1.4243	17.3950	-11.2305	9.8267	2.1478	-8.6572	76.1572	52.1400 
808.722	-0.2227	0.1899	1.0801	17.4561	-8.5449	11.7798	2.3511	-8.6737	76.1737	52.1900 
808.722	-0.3438	0.1772	0.9316	15.4419	13.5498	13.4888	2.5763	-8.4540	76.1737	52.1000 
808.769	-0.3340	0.1299	0.9487	11.9019	35.2783	1.2207	2.7576	-7.9926	76.0968	52.1400 
808.800	-0.1836	0.1309	1.0938	8.8501	42.3584	-5.8594	2.9059	-7.4597	75.9760	52.1000 
808.800	0.0229	0.1631	1.2554	4.4556	35.1563	-3.2959	2.9938	-7.0313	75.8936	51.8100 
808.800	0.1611	0.2119	1.3428	0.8545	18.0054	8.7280	3.0377	-6.8060	75.9045	52.1000 
808.800	0.1064	0.2056	1.2983	-2.0142	4.7607	22.6440	3.0322	-6.7401	76.0529	52.1400 
808.800	-0.0259	0.1738	1.2070	-3.7231	-1.7700	32.3486	2.9993	-6.7236	76.2946	52.0000 
808.800	-0.0796	0.1304	1.0908	-4.8218	-1.5259	33.5693	2.9498	-6.7017	76.5637	52.0000 
808.800	-0.0532	0.0908	1.0288	-5.1270	3.7842	30.0293	2.8839	-6.6357	76.8109	52.0000 
808.816	-0.0005	0.0444	0.9976	-4.6997	9.0332	25.9399	2.8070	-6.5259	77.0416	52.1000 
808.831	0.0332	-0.0044	0.9653	-3.9063	11.2305	22.8882	2.7246	-6.3995	77.2614	51.9500 
808.847	0.0566	-0.0640	0.9492	-2.9907	10.2539	21.0571	2.6367	-6.2842	77.4701	52.1900 
808.863	0.0459	-0.0938	0.9292	-2.7466	7.6294	20.5688	2.5378	-6.1908	77.6898	51.8600 
808.863	0.0557	-0.1187	0.9067	-3.3569	4.2114	18.9209	2.4280	-6.1304	77.8986	52.1000 
808.863	0.0801	-0.1255	0.8765	-4.0894	2.3193	13.8550	2.3126	-6.1029	78.0688	52.0000 
808.863	0.1001	-0.0879	0.8379	-4.8828	-0.3052	10.0708	2.1973	-6.1084	78.1897	51.8600 
808.863	0.0996	-0.0317	0.7983	-5.7373	-1.4648	6.6528	2.0984	-6.1304	78.2556	52.0000 
808.910	0.0664	0.0142	0.7495	-6.1646	-3.1128	7.6294	2.0215	-6.1578	78.2996	52.0000 
808.910	0.0107	0.0566	0.6855	-5.9204	-2.8076	7.8735	1.9666	-6.1633	78.3270	52.1000 
808.910	-0.0088	0.0703	0.6162	-6.4087	-1.4648	8.1787	1.9226	-6.1469	78.3435	52.1000 
808.910	0.0063	0.0840	0.5640	-6.1646	3.1738	8.8501	1.8951	-6.1029	78.3545	52.2900 
808.910	0.0352	0.0967	0.5571	-5.5542	9.5215	9.8267	1.8787	-6.0095	78.3765	52.1400 
808.925	0.0703	0.0908	0.5771	-4.1504	14.9536	11.9629	1.8622	-5.8832	78.4314	51.8600 
808.925	0.0923	0.0713	0.6392	-3.3569	19.2871	13.3667	1.8457	-5.7239	78.5138	51.9500 
808.956	0.1069	0.0674	0.7285	-2.5635	20.0195	13.3057	1.8237	-5.5426	78.6072	51.9500 
808.956	0.1030	0.0537	0.8184	-1.3428	18.7988	13.1836	1.8073	-5.3723	78.7006	51.8600 
808.956	0.1079	0.0488	0.8979	-0.4883	16.4795	11.7798	1.7963	-5.2130	78.7885	51.9500 
808.988	0.1069	0.0498	0.9717	0.6104	13.3057	9.5825	1.7963	-5.0867	78.8544	51.9500 
808.988	0.1118	0.0625	1.0459	0.8545	9.7046	7.3242	1.8073	-4.9878	78.8928	51.8600 
808.988	0.1318	0.0776	1.0884	1.0376	5.9814	5.7373	1.8237	-4.9329	78.9093	52.1000 
808.988	0.1533	0.0869	1.1284	0.6104	2.1362	4.3335	1.8402	-4.9219	78.9093	51.9500 
809.020	0.1787	0.0903	1.1694	-0.3662	-1.8311	2.4414	1.8457	-4.9493	78.8928	51.7600 
809.020	0.2070	0.0942	1.1987	-1.3428	-5.9204	0.8545	1.8512	-5.0262	78.8599	51.9500 
809.050	0.2295	0.0747	1.2046	-2.3193	-10.9253	-0.3662	1.8402	-5.1581	78.8104	52.1000 
809.050	0.2163	0.0488	1.1787	-3.2349	-16.4185	-0.5493	1.8182	-5.3394	78.7720	51.9500 
809.050	0.1904	0.0161	1.1348	-3.8452	-19.1650	-2.0752	1.7798	-5.5536	78.7170	51.8100 
809.050	0.1597	-0.0142	1.1016	-3.8452	-20.3247	-5.3711	1.7303	-5.7678	78.6456	52.0000 
809.081	0.1416	-0.0356	1.0913	-4.1504	-21.1792	-9.0942	1.6754	-5.9821	78.5413	51.8600 
809.081	0.1382	-0.0566	1.0879	-4.9438	-21.1182	-13.0615	1.6150	-6.1963	78.4039	51.7600 
809.113	0.1265	-0.0464	1.0859	-4.8828	-21.9116	-15.6250	1.5601	-6.4160	78.2336	52.0000 
809.113	0.1221	-0.0278	1.0923	-6.3477	-20.6909	-15.0146	1.4996	-6.6193	78.0634	51.9500 
809.113	0.1147	0.0356	1.0957	-8.0566	-19.9585	-12.8174	1.4337	-6.8115	77.8931	52.1000 
809.113	0.1138	0.0952	1.0654	-9.8877	-19.7754	-11.4136	1.3733	-6.9983	77.7338	51.8100 
809.160	0.1323	0.1353	1.0391	-10.1318	-18.4937	-12.5732	1.3184	-7.1851	77.5525	52.0000 
809.160	0.1577	0.1416	1.0474	-9.0332	-13.1836	-13.4888	1.2799	-7.3389	77.3657	52.0000 
809.160	0.1162	0.0630	1.2144	-5.2490	-9.3384	-13.1836	1.2579	-7.4323	77.1899	51.8100 
809.191	0.0264	-0.0669	1.4648	0.1831	-15.6860	-17.8833	1.2524	-7.5256	77.0087	52.0000 
809.191	-0.0684	-0.1724	1.5771	2.1973	-32.2876	-22.3999	1.2579	-7.7454	76.7889	52.0000 
809.191	-0.1250	-0.2114	1.4741	-0.5493	-33.5083	-17.4561	1.2360	-8.0090	76.6132	51.8100 
809.191	-0.1353	-0.1216	1.3145	-3.0518	-32.2266	-13.3667	1.1865	-8.2452	76.4703	52.0000 
809.191	-0.1055	-0.0303	1.1187	-4.4556	-24.1089	-6.2256	1.1426	-8.4320	76.3715	52.0000 
809.223	-0.0830	-0.0400	1.0186	-6.1035	-7.6294	-6.0425	1.0767	-8.4705	76.2946	52.1400 
809.223	-0.0532	-0.0488	0.9883	-6.5918	3.6011	-6.2866	0.9998	-8.3826	76.2177	52.1400 
809.223	-0.0259	-0.0845	1.0015	-7.7515	5.0049	-5.1880	0.9009	-8.2727	76.1627	51.9500 
809.223	-0.0117	-0.1636	1.0317	-7.1411	-1.4648	-3.7231	0.7800	-8.2123	76.1517	52.0000 
809.254	0.0088	-0.2305	1.0723	-7.0801	-4.1504	-5.0659	0.6372	-8.2123	76.1517	51.8100 
809.254	0.0513	-0.2583	1.1289	-6.5918	-3.9673	-6.4697	0.4944	-8.2178	76.1407	51.8100 
809.285	0.0796	-0.2310	1.1821	-5.2490	-5.2490	-7.0190	0.3790	-8.2452	76.1243	51.9500 
809.285	0.0586	-0.1895	1.1816	-5.0659	-7.9956	-7.0190	0.2747	-8.2892	76.0913	51.8600 
809.285	0.0083	-0.1470	1.0884	-4.2114	-9.6436	-8.4229	0.1923	-8.3441	76.0364	51.8600 
809.285	-0.0044	-0.1050	0.9897	-3.9063	-6.1035	-10.0098	0.1208	-8.3661	75.9595	52.0000 
809.316	0.0278	-0.0713	0.9355	-3.2959	-0.7935	-12.2681	0.0769	-8.3386	75.8496	51.8100 
809.316	0.0732	-0.0498	0.9043	-2.2583	2.0752	-14.2212	0.0494	-8.3002	75.7178	51.9500 
809.316	0.0957	-0.0381	0.9014	-1.2207	2.3193	-15.9912	0.0439	-8.2617	75.5640	51.9500 
809.332	0.0908	-0.0435	0.8813	-0.1831	0.6104	-18.0054	0.0439	-8.2397	75.3992	52.0000 
809.363	0.0757	-0.0610	0.8335	0.4272	-1.7700	-19.4092	0.0494	-8.2343	75.2179	52.0000 
809.363	0.0684	-0.0625	0.7915	1.6479	-3.3569	-21.6064	0.0714	-8.2397	75.0201	52.1000 
809.394	0.0645	-0.0610	0.7324	2.1973	-3.9063	-23.3154	0.0934	-8.2617	74.8059	52.1000 
809.394	0.0625	-0.0566	0.6714	2.7466	-3.8452	-22.9492	0.1263	-8.2782	74.5917	51.9500 
809.394	0.0542	-0.0547	0.6104	2.8687	-1.7090	-20.3247	0.1538	-8.2837	74.4049	51.8600 
809.394	0.0273	-0.0527	0.5840	3.4790	3.2349	-15.9912	0.1758	-8.2397	74.2566	52.0000 
809.410	0.0073	-0.0674	0.5732	3.2959	7.2632	-11.9629	0.1923	-8.1354	74.1522	52.0000 
809.410	0.0059	-0.0664	0.5840	3.3569	13.9771	-9.5825	0.1978	-7.9706	74.0863	52.0000 
809.441	0.0459	-0.0488	0.6489	3.1738	22.0337	-8.0566	0.2032	-7.7399	74.0204	52.0000 
809.441	0.0737	-0.0508	0.7607	2.4414	26.7944	-5.8594	0.2142	-7.4707	73.9819	51.8100 
809.457	0.0688	-0.0615	0.8765	2.1362	26.2451	-3.8452	0.2142	-7.1851	73.9600	52.1000 
809.457	0.0532	-0.0845	0.9585	2.1362	23.8647	-3.1738	0.2087	-6.9214	73.9490	51.7600 
809.472	0.0425	-0.0898	1.0122	2.0142	19.4092	-2.6855	0.2032	-6.6907	73.9435	51.8600 
809.472	0.0547	-0.0894	1.0244	1.7090	16.1133	-0.9155	0.1923	-6.5039	73.9545	51.9500 
809.503	0.0830	-0.0796	1.0151	2.3193	14.6484	0.3662	0.1813	-6.3391	73.9819	52.0000 
809.503	0.1191	-0.0801	1.0225	3.7842	13.4888	2.5635	0.1868	-6.2018	74.0259	51.8100 
809.503	0.1479	-0.0791	1.0229	5.0659	10.6201	3.3569	0.2032	-6.0974	74.0808	51.8600 
809.519	0.1621	-0.0815	1.0298	6.8359	7.9346	4.2114	0.2362	-6.0315	74.1467	52.1000 
809.582	0.1738	-0.0859	1.0161	8.3008	6.5308	5.1880	0.2802	-5.9875	74.2236	51.8100 
809.582	0.1714	-0.0757	1.0220	9.2163	5.2490	6.1646	0.3351	-5.9546	74.3060	51.7600 
809.582	0.1665	-0.0571	1.0303	10.0708	2.3804	6.4697	0.4065	-5.9436	74.3884	51.8600 
809.582	0.1582	-0.0200	1.0327	10.3149	-0.9766	7.7515	0.4889	-5.9656	74.4708	51.8600 
809.613	0.1577	0.0063	1.0308	10.9863	-2.8076	9.0942	0.5823	-6.0040	74.5587	52.1000 
809.613	0.1514	0.0371	1.0288	12.0239	-5.0049	10.1318	0.6976	-6.0645	74.6521	51.9500 
809.613	0.1387	0.0400	1.0103	13.1836	-6.3477	12.3291	0.8240	-6.1359	74.7565	51.7600 
809.613	0.1201	0.0215	0.9878	14.8315	-5.4321	13.7329	0.9558	-6.2018	74.8828	51.8600 
809.613	0.1064	-0.0054	0.9878	16.0522	-2.9297	15.3198	1.0931	-6.2457	75.0256	52.0000 
809.613	0.0952	-0.0518	1.0103	16.6016	0.6714	16.6626	1.2195	-6.2457	75.1959	52.0000 
809.613	0.1011	-0.0981	1.0483	17.2119	3.1128	16.9067	1.3348	-6.2183	75.3827	51.8100 
809.628	0.1143	-0.1372	1.0903	17.0288	2.7466	16.6016	1.4392	-6.1908	75.5804	51.6700 
809.660	0.1265	-0.1509	1.1172	16.0522	-0.2441	17.3340	1.5271	-6.1963	75.7837	52.0000 
809.660	0.1284	-0.1226	1.1504	13.8550	-2.5024	17.6392	1.6040	-6.2238	75.9814	51.6700 
809.660	0.0933	-0.0527	1.2119	11.3525	-2.5024	17.6392	1.6809	-6.2457	76.1627	51.8100 
809.675	0.0684	-0.0122	1.3252	9.4604	-0.3052	17.6392	1.7468	-6.2402	76.3275	51.6700 
809.691	0.0811	0.0078	1.4014	9.3994	0.1221	16.7236	1.8073	-6.2292	76.4758	51.9500 
809.691	0.0894	0.0244	1.4292	9.2163	-6.5308	17.3950	1.8787	-6.2622	76.6241	51.8100 
809.691	0.0396	0.0239	1.3579	9.0332	-14.6484	19.5313	1.9446	-6.3721	76.7834	51.8600 
809.738	-0.0625	-0.0093	1.2734	8.6670	-15.4419	19.3481	2.0050	-6.4874	76.9482	51.8100 
809.738	-0.1328	-0.0566	1.2031	7.5073	-12.2681	16.5405	2.0435	-6.5533	77.0966	51.8100 
809.738	-0.1421	-0.0684	1.1152	5.7373	-7.2021	10.1318	2.0599	-6.5588	77.2009	52.0000 
809.738	-0.1270	0.0103	1.0693	3.2959	-3.1128	5.0049	2.0819	-6.5204	77.2229	51.8600 
809.785	-0.1021	0.0532	1.0381	2.1973	1.0376	2.1973	2.1149	-6.4490	77.2009	51.8600 
809.817	-0.0742	0.0947	1.0044	1.4648	3.6011	-0.8545	2.1478	-6.3556	77.1405	51.8600 
809.817	-0.0518	0.1323	0.9912	0.7935	6.0425	-1.8311	2.1973	-6.2402	77.0581	51.9500 
809.817	-0.0308	0.1709	1.0054	0.6714	8.6670	-0.0610	2.2467	-6.1194	76.9757	51.8100 
809.817	-0.0313	0.1670	1.0732	0.9155	10.8643	1.9531	2.3016	-5.9766	76.9208	52.0000 
809.817	-0.0308	0.1509	1.1299	1.4648	12.0239	3.2349	2.3456	-5.8173	76.8823	51.8600 
809.817	-0.0244	0.1182	1.1675	1.5259	14.2822	4.3335	2.3840	-5.6415	76.8713	51.8100 
809.817	0.0029	0.0918	1.2061	1.7090	13.6108	4.3945	2.4115	-5.4712	76.8713	52.0000 
809.817	0.0142	0.0752	1.1924	1.5869	9.3384	3.9673	2.4335	-5.3339	76.8768	51.8600 
809.863	0.0273	0.0767	1.1187	0.9155	3.7842	4.7607	2.4500	-5.2679	76.8823	51.8100 
809.863	0.0449	0.0771	1.0171	0.5493	2.7466	5.1270	2.4609	-5.2185	76.8933	52.1000 
809.863	0.0576	0.0674	0.9780	-0.3052	3.6011	5.3711	2.4664	-5.1746	76.9098	51.7600 
809.878	0.0601	0.0537	0.9580	-1.3428	3.0518	5.1270	2.4554	-5.1361	76.9263	51.8600 
809.926	0.0493	0.0498	0.9243	-2.3804	1.3428	5.5542	2.4335	-5.1086	76.9482	51.8100 
809.926	0.0444	0.0522	0.8892	-3.5400	-0.3662	7.2021	2.4005	-5.0977	76.9757	51.8600 
809.926	0.0430	0.0566	0.8584	-4.0283	-1.5259	9.5215	2.3621	-5.1031	77.0251	51.8100 
809.926	0.0439	0.0474	0.8345	-4.5166	-3.8452	12.2681	2.3181	-5.1251	77.1075	51.9500 
809.941	0.0435	0.0337	0.7944	-4.6997	-6.3477	14.2822	2.2632	-5.1801	77.2064	51.9500 
809.941	0.0469	0.0303	0.7471	-4.6387	-5.6152	14.2822	2.2028	-5.2350	77.3163	51.8600 
809.941	0.0483	0.0361	0.7104	-4.4556	-2.5635	12.9395	2.1478	-5.2679	77.4097	52.0000 
809.957	0.0625	0.0405	0.7095	-3.7842	2.5635	10.4980	2.1094	-5.2570	77.4866	51.8600 
809.988	0.0688	0.0503	0.7495	-2.7466	7.0190	8.0566	2.0764	-5.1965	77.5305	51.7600 
810.003