StartTime: 2017-08-15 14:07:20.448
Time(s)	ax(g)	ay(g)	az(g)	wx(deg/s)	wy(deg/s)	wz(deg/s)	AngleX(deg)	AngleY(deg)	AngleZ(deg)	T(°) 
447.427	-0.1099	-0.0508	1.0117	1.7700	3.0518	2.8687	-1.7798	5.9656	81.7383	50.8000 
447.427	-0.1245	-0.0464	1.0010	2.1973	2.9907	3.3569	-1.7578	5.9985	81.7548	50.7600 
447.427	-0.1265	-0.0508	1.0117	1.9531	2.8076	4.0283	-1.7413	6.0370	81.7767	50.9000 
447.474	-0.1240	-0.0449	1.0146	1.9531	2.6245	4.6997	-1.7249	6.0699	81.8042	50.8000 
447.474	-0.1177	-0.0479	1.0112	1.8921	2.4414	5.4932	-1.7029	6.1029	81.8372	50.8000 
447.505	-0.1118	-0.0469	1.0122	1.8921	2.4414	5.6763	-1.6864	6.1304	81.8756	50.7100 
447.505	-0.1104	-0.0347	1.0181	2.0142	2.5024	6.2256	-1.6589	6.1578	81.9196	50.9500 
447.505	-0.1050	-0.0239	1.0073	2.3804	2.8687	6.5308	-1.6260	6.1853	81.9580	51.0400 
447.521	-0.1089	-0.0205	1.0049	1.8921	3.9673	6.4697	-1.5985	6.2238	81.9965	50.8000 
447.521	-0.1079	-0.0127	1.0107	1.4648	4.6997	6.8359	-1.5710	6.2732	82.0294	50.7100 
447.521	-0.1030	-0.0200	1.0215	1.2207	5.1270	7.0801	-1.5436	6.3226	82.0734	50.7600 
447.536	-0.1030	-0.0190	1.0273	0.6714	3.8452	8.1787	-1.5216	6.3611	82.1228	50.8000 
447.536	-0.1016	-0.0308	1.0254	0.0000	2.4414	8.6670	-1.5161	6.3885	82.1777	50.8000 
447.536	-0.0977	-0.0444	1.0176	-0.3662	1.5869	8.7891	-1.5106	6.3995	82.2437	50.8000 
447.552	-0.0889	-0.0591	1.0020	-0.4883	1.5259	7.7515	-1.5161	6.4105	82.3096	51.0400 
447.599	-0.0889	-0.0752	0.9980	-0.2441	1.8311	6.4087	-1.5326	6.4215	82.3645	50.7600 
447.599	-0.0845	-0.0815	0.9951	-0.3052	2.3804	4.7607	-1.5436	6.4380	82.4084	50.7600 
447.599	-0.0786	-0.0845	0.9995	0.4272	2.6245	3.4180	-1.5601	6.4490	82.4359	50.7100 
447.599	-0.0840	-0.0820	1.0000	0.7935	2.8076	2.2583	-1.5710	6.4655	82.4579	50.9000 
447.630	-0.0923	-0.0771	1.0000	0.5493	2.8687	1.3428	-1.5820	6.4874	82.4634	50.7600 
447.630	-0.0967	-0.0669	1.0059	0.6104	3.1128	1.2207	-1.5875	6.5149	82.4579	50.7600 
447.630	-0.1001	-0.0571	1.0132	0.7935	3.3569	0.8545	-1.5875	6.5424	82.4524	50.7100 
447.646	-0.1055	-0.0513	1.0225	1.0376	3.1128	0.9155	-1.5875	6.5698	82.4359	50.7600 
447.646	-0.1074	-0.0483	1.0259	1.2817	2.7466	0.9155	-1.5765	6.5973	82.4194	50.7600 
447.646	-0.1099	-0.0308	1.0132	1.5869	2.2583	0.8545	-1.5656	6.6193	82.4030	51.0400 
447.661	-0.1108	-0.0376	1.0107	1.5869	2.5635	0.9766	-1.5546	6.6412	82.3810	51.0400 
447.677	-0.1011	-0.0518	1.0195	1.8311	2.9297	0.0000	-1.5436	6.6687	82.3645	51.0400 
447.693	-0.1055	-0.0444	1.0190	2.5024	2.1973	-0.4272	-1.5271	6.6852	82.3370	50.9000 
447.693	-0.1021	-0.0352	1.0195	2.3804	2.2583	0.0000	-1.5051	6.7017	82.3096	50.8000 
447.708	-0.0996	-0.0596	1.0132	2.9907	3.0518	0.1221	-1.4832	6.7236	82.2876	50.8000 
447.724	-0.0889	-0.0762	1.0283	2.5635	3.3569	-0.7324	-1.4722	6.7456	82.2711	50.9000 
447.739	-0.0933	-0.0625	1.0264	2.5024	2.5024	-0.8545	-1.4612	6.7676	82.2491	50.9500 
447.739	-0.0957	-0.0586	1.0176	1.9531	1.5869	-0.4883	-1.4557	6.7731	82.2272	50.7600 
447.739	-0.0928	-0.0654	1.0161	2.2583	1.3428	-1.0376	-1.4447	6.7786	82.2052	50.9000 
447.755	-0.0942	-0.0698	1.0103	2.3193	1.4648	-1.7700	-1.4392	6.7841	82.1777	50.9000 
447.755	-0.0815	-0.0664	0.9966	1.7090	1.3428	-2.4414	-1.4337	6.7841	82.1448	51.0400 
447.771	-0.0737	-0.0791	0.9917	1.8311	0.9155	-4.3945	-1.4392	6.7786	82.1008	50.9000 
447.802	-0.0811	-0.0610	0.9893	1.3428	1.3428	-5.8594	-1.4447	6.7731	82.0404	50.9500 
447.802	-0.0806	-0.0566	0.9839	1.8311	2.6855	-6.5918	-1.4447	6.7841	81.9635	50.8000 
447.880	-0.0869	-0.0557	0.9858	1.5259	4.7607	-7.3242	-1.4502	6.8115	81.8811	50.8000 
447.880	-0.0864	-0.0371	1.0024	1.2817	6.2866	-7.3242	-1.4502	6.8610	81.7877	51.0400 
447.880	-0.0771	-0.0249	1.0190	0.9766	6.4697	-5.6763	-1.4502	6.9104	81.7053	50.8000 
447.880	-0.0752	-0.0083	1.0269	0.8545	6.1035	-3.7231	-1.4392	6.9543	81.6394	50.9500 
447.911	-0.0820	0.0063	1.0293	1.0986	5.1880	-1.3428	-1.4227	6.9928	81.5900	50.9500 
447.911	-0.0850	-0.0054	1.0210	1.2817	4.5166	0.7935	-1.4008	7.0258	81.5625	50.8000 
447.911	-0.0942	-0.0200	1.0049	0.9766	3.7842	1.2207	-1.3843	7.0532	81.5515	51.0400 
447.911	-0.0923	-0.0381	0.9722	1.0376	5.4321	0.1221	-1.3788	7.0917	81.5405	50.9500 
447.911	-0.0820	-0.0415	0.9551	0.7935	8.7280	-1.5259	-1.3788	7.1576	81.5186	50.8000 
447.911	-0.0718	-0.0488	0.9668	0.9155	12.6953	-3.1738	-1.3843	7.2565	81.4746	50.8000 
447.927	-0.0591	-0.0415	0.9868	0.8545	14.8926	-4.2725	-1.3898	7.3773	81.4197	50.7600 
447.927	-0.0674	-0.0474	1.0020	1.1597	15.1367	-3.3569	-1.3898	7.5037	81.3702	50.8000 
447.927	-0.0898	-0.0498	1.0088	1.9531	13.7329	-1.4648	-1.3843	7.6300	81.3373	51.1400 
447.958	-0.1104	-0.0522	1.0142	2.7466	11.5967	-0.0610	-1.3678	7.7399	81.3208	50.9000 
447.958	-0.1079	-0.0508	0.9985	3.5400	9.7046	0.0000	-1.3458	7.8333	81.3098	50.9500 
447.958	-0.0918	-0.0469	0.9966	3.9063	8.8501	-0.4272	-1.3184	7.9047	81.2988	50.9500 
448.005	-0.0874	-0.0439	0.9912	4.3945	8.9722	-0.7324	-1.2799	7.9761	81.2823	50.9500 
448.005	-0.0884	-0.0459	0.9907	5.0049	9.2163	-1.5869	-1.2415	8.0530	81.2549	51.0400 
448.021	-0.1069	-0.0420	1.0005	4.9438	9.0942	-3.6011	-1.2030	8.1299	81.2164	51.0400 
448.037	-0.1182	-0.0332	1.0142	5.5542	6.5918	-5.3101	-1.1646	8.1903	81.1505	51.0400 
448.037	-0.1240	-0.0327	0.9937	5.4932	3.9063	-6.4087	-1.1206	8.2288	81.0681	50.6100 
448.037	-0.1304	-0.0313	0.9688	5.8594	2.0752	-6.8970	-1.0822	8.2452	80.9857	50.8000 
448.037	-0.1289	-0.0356	0.9512	6.2256	2.0142	-7.5073	-1.0327	8.2617	80.8978	51.0400 
448.037	-0.1221	-0.0386	0.9443	7.3853	3.3569	-7.6294	-0.9833	8.2837	80.8099	50.9500 
448.037	-0.1104	-0.0454	0.9639	7.3853	4.3335	-6.5918	-0.9283	8.3167	80.7330	50.9500 
448.084	-0.1035	-0.0615	1.0000	6.7139	4.3335	-5.5542	-0.8844	8.3441	80.6726	50.8000 
448.084	-0.1060	-0.0742	1.0352	5.9814	2.8076	-4.6997	-0.8459	8.3606	80.6232	51.1400 
448.084	-0.1157	-0.0879	1.0645	4.7607	0.3052	-4.9438	-0.8295	8.3551	80.5847	51.0400 
448.115	-0.1143	-0.0942	1.0835	3.5400	-1.8311	-6.4087	-0.8240	8.3276	80.5298	50.9500 
448.115	-0.1138	-0.1011	1.0698	2.6855	-2.2583	-8.9111	-0.8295	8.2892	80.4584	51.0400 
448.115	-0.1001	-0.1045	1.0801	2.2583	-2.8076	-11.7188	-0.8514	8.2452	80.3595	50.9500 
448.115	-0.0723	-0.1118	1.0737	1.4038	-3.4790	-14.0381	-0.8844	8.1848	80.2441	51.0400 
448.146	-0.0522	-0.0991	1.0664	1.7090	-5.3101	-14.9536	-0.9119	8.1024	80.1068	51.0400 
448.146	-0.0327	-0.0874	1.0332	2.3193	-5.8594	-14.7095	-0.9338	8.0035	79.9750	51.1400 
448.146	-0.0171	-0.0767	1.0020	2.8076	-5.0659	-14.0991	-0.9503	7.9047	79.8431	50.9500 
448.161	-0.0039	-0.0566	0.9868	2.7466	-2.6245	-12.5122	-0.9558	7.8278	79.7278	51.0400 
448.208	0.0010	-0.0298	0.9771	2.3193	0.9155	-9.8267	-0.9503	7.7783	79.6234	51.0400 
448.224	-0.0044	-0.0127	0.9814	0.9155	5.4321	-6.5918	-0.9503	7.7783	79.5410	50.9000 
448.224	0.0039	-0.0029	1.0288	-0.1221	8.1787	-3.1738	-0.9558	7.8058	79.4916	51.0900 
448.255	-0.0034	-0.0112	1.0703	-1.4648	8.3008	-0.3662	-0.9668	7.8387	79.4751	51.1400 
448.255	-0.0264	-0.0190	1.0747	-2.7466	5.9204	1.6479	-0.9888	7.8662	79.4806	51.1400 
448.255	-0.0356	-0.0420	1.0708	-3.6621	3.3569	2.5024	-1.0217	7.8717	79.5026	50.9500 
448.255	-0.0469	-0.0620	1.0410	-3.6621	0.5493	2.5635	-1.0657	7.8497	79.5355	51.2800 
448.255	-0.0430	-0.0776	0.9971	-3.2349	-0.3052	1.7090	-1.1151	7.8168	79.5630	51.0400 
448.271	-0.0410	-0.0879	0.9653	-3.1128	1.0376	1.0376	-1.1700	7.7893	79.5905	51.2300 
448.271	-0.0347	-0.0972	0.9551	-3.2959	2.3193	0.7324	-1.2250	7.7783	79.6179	51.1400 
448.286	-0.0386	-0.1021	0.9580	-3.3569	3.2959	0.8545	-1.2854	7.7728	79.6454	51.0400 
448.286	-0.0303	-0.1084	0.9800	-3.6011	3.2959	0.7935	-1.3513	7.7728	79.6783	51.1400 
448.302	-0.0166	-0.1108	1.0010	-3.8452	1.7090	0.9155	-1.4172	7.7563	79.7113	50.8000 
448.302	-0.0034	-0.1099	1.0156	-3.8452	-0.6714	0.7324	-1.4832	7.7069	79.7443	51.0400 
448.318	0.0020	-0.1123	1.0215	-3.9063	-2.9907	0.7935	-1.5436	7.6355	79.7772	51.0400 
448.318	0.0078	-0.1211	1.0034	-4.3335	-4.6997	0.7324	-1.6150	7.5476	79.8102	51.0400 
448.349	0.0098	-0.1279	0.9971	-3.7231	-4.3945	0.3052	-1.6809	7.4542	79.8431	51.1400 
448.349	0.0171	-0.1304	0.9902	-2.9297	-4.2725	-0.3662	-1.7468	7.3553	79.8706	50.9500 
448.365	0.0234	-0.1221	0.9751	-2.3804	-3.6011	-0.5493	-1.8018	7.2675	79.8981	50.9500 
448.365	0.0229	-0.1172	0.9731	-1.9531	-2.3804	0.3052	-1.8457	7.1906	79.9200	51.0400 
448.380	0.0254	-0.1069	0.9722	-1.1597	-1.2207	1.8921	-1.8842	7.1191	79.9585	51.2300 
448.380	0.0049	-0.1045	0.9746	-1.0986	0.4272	2.8076	-1.9171	7.0752	80.0079	51.2300 
448.380	-0.0098	-0.1064	0.9902	-1.0376	1.5869	3.7231	-1.9446	7.0477	80.0629	51.0900 
448.411	-0.0229	-0.1084	0.9883	-1.0376	1.7700	4.2725	-1.9775	7.0313	80.1233	51.1400 
448.443	-0.0234	-0.1064	1.0000	-0.9766	2.1973	4.2725	-2.0050	7.0148	80.1837	51.0900 
448.443	-0.0112	-0.0972	1.0029	-0.9155	3.1738	4.0894	-2.0325	7.0093	80.2386	51.1400 
448.443	0.0034	-0.0864	1.0327	-1.0986	2.3193	4.9438	-2.0544	6.9928	80.2991	51.0900 
448.443	0.0098	-0.0786	1.0493	-1.0376	0.6714	5.7373	-2.0709	6.9598	80.3650	50.9500 
448.474	0.0049	-0.0688	1.0659	-0.9766	-1.9531	7.8125	-2.0819	6.9104	80.4419	51.2300 
448.474	-0.0024	-0.0713	1.0552	-0.9155	-5.7983	10.3760	-2.0874	6.8225	80.5463	51.0900 
448.474	0.0010	-0.0786	1.0430	-0.8545	-8.7280	13.2446	-2.0929	6.7072	80.6836	51.0900 
448.474	0.0093	-0.0938	1.0430	-1.1597	-9.1553	15.2588	-2.1039	6.5753	80.8429	51.1400 
448.521	0.0278	-0.1108	1.0405	-2.2583	-7.6904	16.7236	-2.1259	6.4545	81.0242	51.1400 
448.521	0.0371	-0.1323	1.0640	-2.9907	-6.0425	17.3950	-2.1588	6.3446	81.2164	51.1400 
448.521	0.0405	-0.1772	1.0942	-4.3945	-4.8828	17.0898	-2.2137	6.2457	81.4197	51.0400 
448.536	0.0391	-0.2041	1.1211	-5.5542	-4.0283	14.5874	-2.2961	6.1578	81.6119	51.0400 
448.536	0.0410	-0.2275	1.1372	-6.1035	-4.0894	11.4746	-2.3895	6.0754	81.7712	51.0900 
448.552	0.0488	-0.2373	1.1440	-5.7983	-4.4556	8.0566	-2.4939	5.9821	81.9031	51.0400 
448.552	0.0620	-0.2246	1.1382	-5.9204	-6.5308	5.6763	-2.5928	5.8667	82.0074	51.4300 
448.584	0.0801	-0.2026	1.1167	-6.0425	-7.5073	3.8452	-2.6917	5.7404	82.0844	51.0900 
448.584	0.1060	-0.1733	1.0786	-6.4697	-6.8970	3.5400	-2.7905	5.6030	82.1503	51.1400 
448.584	0.1255	-0.1436	1.0635	-6.0425	-5.1880	4.6387	-2.8784	5.4767	82.2162	51.0400 
448.584	0.1460	-0.0845	1.0596	-5.6763	-2.0752	7.4463	-2.9443	5.3723	82.2876	51.0400 
448.584	0.1538	-0.0127	1.0815	-4.6997	2.0752	12.2070	-2.9773	5.3064	82.3865	51.0400 
448.615	0.1323	0.0015	1.1270	-4.3335	7.4463	19.0430	-2.9883	5.3064	82.5348	51.0900 
448.646	0.0854	-0.0928	1.1973	-6.9580	13.3667	22.5830	-3.0322	5.3723	82.7380	51.2300 
448.646	0.0137	-0.1924	1.2759	-10.2539	17.8223	20.1416	-3.1366	5.5096	82.9523	51.0400 
448.646	-0.0776	-0.2441	1.3228	-11.3525	18.0664	14.7705	-3.2739	5.6799	83.1281	51.0400 
448.646	-0.1880	-0.2813	1.3013	-11.2305	14.5874	6.3477	-3.4277	5.8447	83.2434	51.1400 
448.693	-0.2939	-0.2856	1.2275	-10.1318	9.8267	-2.5635	-3.5925	5.9875	83.2819	51.4300 
448.693	-0.3711	-0.2339	1.1440	-9.0942	6.3477	-10.0098	-3.7463	6.1139	83.2324	51.2300 
448.693	-0.4253	-0.1406	1.0576	-8.3008	2.3193	-13.7939	-3.8727	6.2238	83.0951	51.4300 
448.725	-0.4639	-0.0649	0.9785	-6.8970	-0.7324	-13.6719	-3.9551	6.3226	82.9028	51.1400 
448.725	-0.4624	-0.0068	0.9043	-5.3101	-2.7466	-9.2773	-3.9880	6.4105	82.6886	51.2300 
448.725	-0.4473	0.0459	0.8130	-4.6997	-4.0283	-4.2725	-3.9825	6.4874	82.4799	51.2300 
448.756	-0.4253	0.0850	0.7256	-4.8828	-0.3052	0.3662	-3.9331	6.5863	82.2766	51.4300 
448.756	-0.4082	0.1230	0.6743	-5.6763	8.0566	3.6011	-3.8672	6.7566	82.0679	51.0900 
448.756	-0.3877	0.1445	0.6934	-7.0801	17.5781	5.9814	-3.8013	7.0093	81.8866	51.2300 
448.756	-0.3657	0.1431	0.7734	-7.6904	27.3438	7.0190	-3.7573	7.3499	81.7383	51.0900 
448.756	-0.3462	0.1719	0.9097	-7.2632	31.2500	10.6812	-3.7189	7.7179	81.6504	51.0900 
448.771	-0.3374	0.1812	1.0410	-5.4321	28.0762	16.3574	-3.6694	8.0640	81.6339	51.0400 
448.786	-0.3281	0.1650	1.1465	-2.8076	20.2637	23.6816	-3.5980	8.3331	81.7108	51.2800 
448.786	-0.3188	0.1304	1.2124	0.3662	10.9253	30.6396	-3.4937	8.5144	81.8866	51.4300 
448.786	-0.3052	0.0698	1.2334	2.9907	-0.8545	35.4614	-3.3728	8.5803	82.1503	51.0900 
448.849	-0.2920	-0.0117	1.2041	4.6997	-11.2305	37.1094	-3.2465	8.5419	82.4634	51.0900 
448.849	-0.2710	-0.0908	1.1626	6.0425	-17.2119	35.1563	-3.1311	8.4320	82.7985	51.1400 
448.849	-0.2466	-0.1655	1.1074	6.8970	-19.7754	30.5786	-3.0432	8.2837	83.1281	51.2300 
448.849	-0.2300	-0.1992	1.0317	7.8735	-19.1040	24.0479	-2.9718	8.1244	83.4137	51.2800 
448.849	-0.1948	-0.2085	0.9780	9.5825	-14.4653	16.9067	-2.9114	7.9926	83.6444	51.1400 
448.849	-0.1582	-0.2168	0.9482	11.9019	-9.0942	10.3760	-2.8345	7.9047	83.8092	51.0400 
448.903	-0.1284	-0.2051	0.9517	14.4653	-6.3477	5.2490	-2.7466	7.8387	83.9136	51.2300 
448.903	-0.1177	-0.1807	0.9414	17.8833	-4.2725	1.9531	-2.6257	7.7838	83.9685	51.2800 
448.903	-0.1108	-0.1416	0.9570	21.0571	-4.5776	0.6104	-2.4609	7.7344	83.9850	51.2300 
448.904	-0.1064	-0.1191	0.9668	23.8037	-6.1035	-1.2207	-2.2632	7.6685	83.9795	51.2300 
448.925	-0.0947	-0.1006	0.9678	24.6582	-9.0942	-3.3569	-2.0435	7.5751	83.9465	51.2800 
448.931	-0.0835	-0.0845	0.9556	24.2920	-11.5967	-7.5684	-1.8292	7.4487	83.8751	51.4300 
448.931	-0.0576	-0.0537	0.9355	24.0479	-12.3901	-10.9863	-1.6095	7.3004	83.7543	51.1400 
448.963	-0.0254	-0.0337	0.9175	23.7427	-12.6343	-13.6719	-1.3953	7.1411	83.6005	51.5700 
448.963	0.0127	-0.0186	0.9165	23.2544	-13.0615	-15.8081	-1.1810	6.9653	83.4247	51.2800 
448.963	0.0176	0.0127	0.8970	22.5830	-13.2446	-15.3198	-0.9668	6.7841	83.2324	51.4300 
448.963	0.0093	0.0347	0.8799	21.3623	-14.0381	-13.1836	-0.7526	6.5973	83.0511	51.5700 
448.978	0.0015	0.0371	0.8535	20.3857	-14.5874	-9.7046	-0.5438	6.4105	82.9028	51.4300 
448.994	-0.0063	0.0381	0.8345	18.9819	-13.1836	-8.4229	-0.3461	6.2347	82.7710	51.2800 
449.025	-0.0049	0.0244	0.8325	17.1509	-10.5591	-6.7139	-0.1648	6.0864	82.6611	51.2800 
449.025	0.0044	0.0117	0.8350	13.7939	-8.7891	-7.3242	-0.0220	5.9601	82.5513	51.3300 
449.025	0.0117	-0.0195	0.8335	12.5122	-3.6011	-7.8125	0.0879	5.8612	82.4524	51.1400 
449.057	0.0293	-0.0229	0.9004	12.2681	-1.3428	-8.6670	0.1923	5.8008	82.3425	51.2300 
449.057	0.0176	-0.0464	0.9326	10.5591	-2.5635	-10.4370	0.2747	5.7404	82.2327	51.3300 
449.057	0.0005	-0.0635	0.9585	8.5449	-5.3101	-12.7563	0.3296	5.6580	82.1008	51.1400 
449.057	-0.0005	-0.0645	0.9746	6.0425	-8.4229	-15.8691	0.3516	5.5481	81.9470	51.4300 
449.088	0.0005	-0.0649	0.9854	4.7607	-12.3291	-18.4326	0.3625	5.3998	81.7603	51.4300 
449.088	-0.0039	-0.0459	0.9937	3.4180	-16.8457	-19.8975	0.3571	5.2185	81.5570	51.2300 
449.088	-0.0166	-0.0254	0.9590	2.1973	-20.6909	-21.3623	0.3516	4.9933	81.3263	51.3300 
449.103	-0.0220	-0.0127	0.9316	1.2207	-22.2168	-22.4609	0.3406	4.7571	81.0846	51.2800 
449.103	-0.0137	0.0020	0.9287	0.6714	-21.3623	-23.4985	0.3296	4.5209	80.8264	51.2800 
449.119	0.0103	0.0029	0.9536	0.0000	-19.8975	-25.0244	0.3131	4.2902	80.5627	51.0900 
449.119	0.0313	0.0186	1.0024	-0.3662	-20.1416	-26.9165	0.2911	4.0594	80.2771	51.2800 
449.150	0.0566	0.0581	1.0298	-0.0610	-19.7754	-27.9541	0.2802	3.8177	79.9695	51.2300 
449.150	0.0610	0.1152	1.0342	0.6104	-16.7236	-27.1606	0.2966	3.5980	79.6564	51.3300 
449.150	0.0605	0.1675	1.0376	1.9531	-9.3384	-22.8271	0.3461	3.4442	79.3652	51.4700 
449.166	0.0571	0.2007	1.1025	2.5635	-0.1221	-16.7847	0.4120	3.3783	79.1235	51.2300 
449.198	0.0547	0.2119	1.2002	4.0894	6.2866	-10.1318	0.4944	3.3893	78.9532	51.6700 
449.198	0.0635	0.2100	1.3115	5.3101	6.9580	-4.1504	0.5933	3.4222	78.8434	51.4300 
449.198	0.0952	0.1870	1.3999	7.2021	0.9766	0.9766	0.7031	3.4113	78.7994	51.4300 
449.244	0.1431	0.1528	1.4531	8.3008	-11.2305	3.5400	0.8130	3.2794	78.7939	51.3300 
449.244	0.1997	0.0781	1.4302	8.6060	-25.2686	3.1738	0.9174	2.9938	78.8049	51.1400 
449.244	0.2295	-0.0205	1.3467	7.3853	-36.0718	0.0000	0.9943	2.5873	78.8104	51.4700 
449.244	0.2153	-0.1270	1.2031	5.4932	-37.9639	-5.6763	1.0217	2.1259	78.7830	51.1400 
449.276	0.1523	-0.1909	1.0752	3.6011	-24.5972	-10.8643	0.9998	1.7743	78.7280	51.0900 
449.276	0.0649	-0.2085	1.0498	4.2725	0.3052	-13.3057	0.9613	1.6644	78.6566	51.3300 
449.276	-0.0190	-0.1641	1.1533	7.9346	22.5220	-12.1460	0.9723	1.8292	78.5797	51.4700 
449.291	-0.1304	-0.1064	1.3125	12.0239	30.5176	-9.1553	1.0382	2.1423	78.5138	51.2300 
449.307	-0.2554	-0.0166	1.3662	13.9771	21.3623	-5.8594	1.1591	2.4280	78.4424	51.4300 
449.307	-0.3491	0.0249	1.3418	15.3198	3.3569	-4.4556	1.3074	2.5763	78.3655	51.3300 
449.307	-0.4175	0.0146	1.2197	16.4795	-16.7236	-6.4087	1.4722	2.5543	78.2556	51.3300 
449.338	-0.4365	-0.0049	1.0264	17.1509	-28.0151	-13.6719	1.6370	2.4115	78.0743	51.4700 
449.338	-0.4180	-0.0347	0.8574	17.3950	-28.9917	-22.2168	1.7908	2.2632	77.8052	51.3300 
449.338	-0.3940	-0.0386	0.7192	17.8223	-24.5972	-27.8320	1.9446	2.1643	77.4866	51.4300 
449.353	-0.3677	-0.0723	0.6377	18.4937	-11.4746	-29.1138	2.0764	2.1918	77.1680	51.5700 
449.369	-0.3359	-0.1196	0.6768	18.8599	3.0518	-28.8696	2.1808	2.3401	76.9318	51.3300 
449.400	-0.3086	-0.1460	0.7793	15.9302	12.2070	-27.8931	2.2522	2.5653	76.7285	51.4300 
449.400	-0.2949	-0.1846	0.8945	9.8267	14.3433	-26.7944	2.2632	2.8015	76.5527	51.2300 
449.400	-0.2954	-0.2227	0.9678	3.2959	11.1084	-27.7100	2.1973	3.0048	76.3879	51.1400 
449.400	-0.2983	-0.2007	0.9922	-2.9297	5.3101	-31.7993	2.0764	3.1531	76.1792	51.4300 
449.447	-0.2769	-0.1636	0.9902	-7.5073	1.4038	-38.4521	1.9116	3.2574	75.8881	51.4700 
449.447	-0.2490	-0.0962	0.9771	-10.2539	-0.9155	-43.0298	1.7413	3.3289	75.5090	51.3300 
449.447	-0.2041	-0.0078	0.9771	-10.9253	-0.6104	-43.3960	1.5820	3.3893	75.0806	51.4700 
449.479	-0.1450	0.0767	0.9883	-11.1084	1.1597	-37.7197	1.4612	3.4442	74.6686	51.2300 
449.479	-0.0942	0.1299	1.0264	-10.4370	1.8311	-28.5645	1.3733	3.4827	74.3335	51.4700 
449.479	-0.0767	0.1685	1.0498	-11.1084	-0.3052	-17.9443	1.2909	3.4937	74.0918	51.4700 
449.479	-0.0918	0.1904	1.0903	-11.5967	-4.9438	-9.3384	1.2250	3.4607	73.9380	51.4300 
449.479	-0.1182	0.1807	1.1060	-13.7939	-14.8926	-2.5635	1.1426	3.3508	73.8501	51.3300 
449.510	-0.1538	0.1763	1.0327	-16.8457	-27.5879	2.6855	1.0327	3.1311	73.8062	51.4300 
449.510	-0.1704	0.1392	0.9243	-18.7378	-36.7432	7.2021	0.9009	2.8180	73.8062	51.1400 
449.541	-0.1567	0.1045	0.7988	-20.2637	-36.0718	11.6577	0.7526	2.4939	73.8501	51.2800 
449.541	-0.1226	0.0840	0.7358	-19.4092	-27.4658	16.5405	0.5988	2.2357	73.9600	51.4300 
449.541	-0.0898	0.0576	0.7271	-17.7002	-16.2964	22.2168	0.4559	2.0764	74.1357	51.2300 
449.541	-0.0684	0.0273	0.7695	-14.8926	-5.4932	28.1982	0.3241	2.0105	74.3884	51.2800 
449.572	-0.0576	-0.0386	0.8579	-11.4136	1.1597	33.3862	0.2032	2.0215	74.7290	51.4300 
449.572	-0.0532	-0.0981	0.9604	-8.9722	0.7935	36.1938	0.0879	2.0435	75.1190	51.4300 
449.588	-0.0308	-0.1558	1.0347	-7.6904	-5.5542	37.2925	-0.0220	1.9995	75.5475	51.4300 
449.588	-0.0117	-0.1895	1.0571	-6.4697	-13.8550	36.0718	-0.1318	1.8677	75.9760	51.4700 
449.603	0.0127	-0.2012	1.0107	-6.1646	-21.6675	34.2407	-0.2472	1.6534	76.3989	51.2800 
449.603	0.0425	-0.2139	0.9492	-6.4087	-25.8179	31.5552	-0.3735	1.3733	76.7999	51.1400 
449.603	0.0659	-0.2207	0.8843	-6.5918	-26.3062	26.7334	-0.5109	1.0767	77.1570	51.5700 
449.650	0.0840	-0.2217	0.8491	-7.2632	-24.0479	20.3247	-0.6537	0.7855	77.4646	51.4300 
449.650	0.0977	-0.2197	0.8428	-8.0566	-20.9961	14.0991	-0.8130	0.5164	77.7008	51.4700 
449.650	0.1016	-0.2080	0.8516	-8.9111	-16.2964	7.8735	-0.9723	0.2911	77.8766	51.4300 
449.650	0.1157	-0.1768	0.8838	-8.9111	-14.0991	2.8076	-1.1206	0.0989	77.9810	51.4300 
449.650	0.1323	-0.1431	0.9067	-8.1177	-13.6719	0.9155	-1.2524	-0.0879	78.0469	51.4300 
449.682	0.1479	-0.1313	0.9238	-7.8735	-13.1836	0.6104	-1.3678	-0.2747	78.1018	51.4300 
449.682	0.1470	-0.1016	0.9390	-7.7515	-11.5967	0.6714	-1.4722	-0.4449	78.1458	51.5700 
449.682	0.1777	-0.0571	0.9395	-5.6763	-13.3057	4.6997	-1.5491	-0.6317	78.2062	51.4300 
449.713	0.2036	-0.0132	0.9082	-2.5024	-13.4888	10.9863	-1.5820	-0.8295	78.3105	51.5700 
449.713	0.2070	0.0029	0.8960	0.0610	-9.5825	16.9678	-1.5820	-1.0052	78.4698	51.4700 
449.744	0.1978	-0.0010	0.9238	1.4648	-4.4556	23.4375	-1.5656	-1.1261	78.6896	51.4300 
449.744	0.1929	-0.0234	0.9912	2.3804	-1.2817	29.1748	-1.5436	-1.1975	78.9697	51.5700 
449.776	0.1670	-0.0796	1.0605	2.0752	-0.6104	32.2266	-1.5381	-1.2415	79.2993	51.4300 
449.776	0.1250	-0.1348	1.1060	0.3052	-2.6245	31.7383	-1.5656	-1.2909	79.6454	51.3300 
449.776	0.0815	-0.1899	1.1108	-1.5259	-4.3945	28.7476	-1.6260	-1.3513	79.9805	51.4300 
449.807	0.0449	-0.2085	1.1001	-2.6245	-2.8076	23.5596	-1.7084	-1.3898	80.2716	51.5700 
449.807	0.0449	-0.2393	1.1177	-4.0283	-1.8311	17.2729	-1.8073	-1.4117	80.5188	51.4300 
449.807	0.0840	-0.2793	1.1484	-6.0425	-2.2583	12.3291	-1.9336	-1.4502	80.7111	51.4300 
449.807	0.1230	-0.3057	1.1675	-7.8735	-2.5635	8.2397	-2.0819	-1.4996	80.8704	51.6700 
449.853	0.1528	-0.2842	1.1938	-8.6670	-3.3569	6.2256	-2.2357	-1.5656	80.9912	51.4700 
449.853	0.1646	-0.2168	1.2251	-8.8501	-7.0801	6.1035	-2.3785	-1.6589	81.0956	51.4300 
449.853	0.1768	-0.0679	1.2202	-7.0190	-10.5591	10.0098	-2.4719	-1.7963	81.1945	51.6200 
449.885	0.1353	0.0732	1.1948	-6.2866	-6.9580	18.7988	-2.5104	-1.9061	81.3208	51.4300 
449.885	0.0244	0.0532	1.2300	-12.7563	5.1880	27.9541	-2.5928	-1.8787	81.5240	51.4700 
449.885	-0.1338	-0.0552	1.3652	-23.6816	14.0381	29.5410	-2.8015	-1.7029	81.7767	51.3300 
449.885	-0.3081	-0.0952	1.4453	-31.0669	10.8032	25.9399	-3.1091	-1.4941	82.0020	51.2800 
449.900	-0.5195	-0.1108	1.3638	-31.7993	2.4414	18.6157	-3.4332	-1.3129	82.1558	51.4300 
449.900	-0.6045	-0.0869	1.2344	-26.5503	-7.2021	14.2822	-3.6969	-1.1975	82.2107	51.4700 
449.916	-0.5796	-0.0176	1.0635	-17.7612	-17.4561	14.4043	-3.8507	-1.1700	82.1997	51.4700 
449.916	-0.5132	0.0630	0.8887	-10.4980	-19.0430	16.9067	-3.8782	-1.1920	82.1448	51.3300 
449.948	-0.4165	0.1201	0.8140	-5.3711	-12.8784	19.2261	-3.8232	-1.1920	82.0844	51.5700 
449.948	-0.3188	0.1392	0.7964	-5.3101	-3.8452	19.7144	-3.7573	-1.1261	82.0624	51.4700 
449.948	-0.2300	0.1318	0.8076	-8.3008	11.5967	21.3623	-3.7354	-0.9558	82.0953	51.5700 
449.948	-0.1577	0.1611	0.9072	-10.2539	30.8228	24.1089	-3.7408	-0.6262	82.1613	51.4700 
449.979	-0.1055	0.1797	1.0781	-10.9253	43.2129	31.1890	-3.7683	-0.1758	82.2986	51.3300 
449.979	-0.0923	0.1206	1.2861	-8.1177	44.0063	39.2456	-3.7903	0.3021	82.5458	51.3300 
449.979	-0.1367	0.0303	1.4277	-2.9297	32.6538	43.6401	-3.7958	0.7141	82.8754	51.4300 
450.010	-0.1938	-0.0449	1.4512	3.5400	14.9536	42.9077	-3.7518	0.9723	83.2434	51.5700 
450.010	-0.2222	-0.1011	1.3823	9.1553	-0.0610	41.1987	-3.6639	1.0767	83.6169	51.5700 
450.010	-0.2241	-0.1226	1.2734	14.6484	-7.9346	38.8184	-3.5266	1.0876	83.9795	51.4300 
450.010	-0.1899	-0.1621	1.1758	19.1650	-9.9487	34.0576	-3.3618	1.0657	84.3256	51.4300 
450.056	-0.1519	-0.1538	1.0889	22.3389	-10.8643	29.6021	-3.1696	1.0217	84.6332	51.6200 
450.056	-0.1016	-0.1592	0.9961	23.1934	-12.5122	25.7568	-2.9663	0.9448	84.9023	51.6200 
450.056	-0.0547	-0.1328	0.9224	23.5596	-11.3525	22.0947	-2.7631	0.8569	85.1331	51.5700 
450.088	-0.0322	-0.1250	0.8633	22.2778	-9.7046	20.5688	-2.5653	0.7800	85.3363	51.3300 
450.088	-0.0215	-0.1162	0.8145	21.2402	-7.0190	20.5078	-2.3840	0.7141	85.5341	51.4700 
450.088	-0.0244	-0.1191	0.7783	20.8130	-4.3945	19.5923	-2.2083	0.6812	85.7263	51.4700 
450.103	-0.0132	-0.1270	0.7407	20.3857	-1.9531	16.9678	-2.0435	0.6592	85.9076	51.3300 
450.103	0.0015	-0.1323	0.7207	20.1416	1.4648	13.3667	-1.8951	0.6647	86.0559	51.2800 
450.119	0.0366	-0.1484	0.7598	21.0571	6.4697	8.4229	-1.7358	0.7086	86.1603	51.4700 
450.135	0.0376	-0.1201	0.7798	20.3857	7.0801	5.6763	-1.5765	0.7581	86.2207	51.2800 
450.135	0.0303	-0.0938	0.7939	19.7754	8.1177	2.5024	-1.4117	0.8185	86.2317	51.3300 
450.150	0.0283	-0.0713	0.8291	18.9819	8.4839	-1.4038	-1.2469	0.8844	86.1932	51.4300 
450.150	0.0186	-0.0459	0.8677	17.3340	8.7891	-5.9814	-1.0822	0.9613	86.1053	51.4700 
450.150	-0.0020	-0.0210	0.9175	14.7705	7.2021	-10.6812	-0.9393	1.0272	85.9515	51.3300 
450.166	-0.0107	-0.0059	0.9463	12.5122	4.8828	-14.2822	-0.8075	1.0767	85.7538	51.3300 
450.197	-0.0225	-0.0127	0.9756	9.8877	1.1597	-17.3340	-0.7031	1.0986	85.5231	51.4300 
450.197	-0.0464	-0.0215	0.9888	8.0566	-3.5400	-20.6909	-0.6262	1.0822	85.2704	51.2300 
450.197	-0.0635	-0.0366	0.9761	7.2021	-7.1411	-24.2310	-0.5658	1.0272	84.9847	51.3300 
450.260	-0.0674	-0.0439	0.9614	5.2490	-10.9863	-28.7476	-0.5219	0.9448	84.6606	51.2300 
450.275	-0.0547	-0.0508	0.9170	3.4180	-15.9302	-34.2407	-0.5054	0.8075	84.2926	51.4700 
450.275	-0.0396	-0.0522	0.8433	1.2817	-18.0664	-40.9546	-0.5054	0.6427	83.8696	51.4300 
450.275	-0.0234	-0.0542	0.7871	-0.7935	-16.1743	-48.0347	-0.5328	0.4779	83.3807	51.2800 
450.306	-0.0137	-0.0386	0.7671	-2.1973	-14.2822	-54.6265	-0.5713	0.3296	82.8314	51.3300 
450.306	-0.0137	-0.0273	0.7671	-3.6621	-13.7939	-59.2041	-0.6152	0.1923	82.2217	51.6200 
450.306	-0.0303	-0.0269	0.7539	-4.6997	-14.1602	-62.5000	-0.6702	0.0549	81.5790	51.3300 
450.306	-0.0444	-0.0400	0.7471	-4.5166	-15.6860	-66.5283	-0.7251	-0.0769	80.9088	51.3300 
450.306	-0.0337	-0.0474	0.7578	-3.9063	-18.4937	-71.1670	-0.7800	-0.2472	80.2002	51.4300 
450.306	-0.0254	-0.0332	0.7578	-2.1973	-21.1182	-75.6226	-0.8130	-0.4449	79.4476	51.4300 
450.322	-0.0146	-0.0010	0.7471	-1.4038	-23.0713	-80.5054	-0.8185	-0.6702	78.6401	51.4300 
450.322	-0.0249	0.0576	0.7144	-0.9766	-25.5127	-82.9468	-0.7910	-0.9174	77.7722	51.4700 
450.338	-0.0313	0.1177	0.6436	-0.3662	-25.1465	-80.0171	-0.7196	-1.1700	76.8768	51.1400 
450.338	-0.0103	0.1670	0.5889	0.7324	-20.8740	-72.1436	-0.5988	-1.4008	76.0254	51.4300 
450.338	0.0513	0.2104	0.5952	1.4038	-14.5264	-61.0962	-0.4559	-1.5985	75.2838	51.4300 
450.338	0.1401	0.2520	0.6763	1.5869	-9.2773	-47.7295	-0.3131	-1.7688	74.6851	51.4300 
450.369	0.2310	0.2622	0.7925	-0.1221	-8.7280	-34.4238	-0.1923	-1.9446	74.2456	51.1400 
450.400	0.3013	0.2603	0.9165	-3.1128	-14.1602	-22.4609	-0.1208	-2.1643	73.9435	51.3300 
450.400	0.3428	0.2412	1.0054	-7.3853	-23.5596	-12.5122	-0.0989	-2.4774	73.7622	51.4300 
450.400	0.3462	0.2114	1.0303	-11.9629	-34.5459	-4.8828	-0.1373	-2.8894	73.6688	51.3300 
450.416	0.3423	0.1655	1.0000	-14.8315	-43.7622	-0.1831	-0.2197	-3.4058	73.6359	51.4700 
450.416	0.3115	0.1016	0.9395	-17.2729	-46.3257	1.7700	-0.3516	-3.9551	73.6414	51.0900 
450.463	0.2471	0.0483	0.8564	-18.0054	-41.3818	3.1128	-0.5054	-4.4604	73.6743	51.2800 
450.463	0.1772	0.0283	0.7822	-16.7847	-32.8979	3.6011	-0.6647	-4.8669	73.7238	51.4300 
450.463	0.1211	0.0269	0.7622	-13.8550	-24.2310	2.6855	-0.7965	-5.1581	73.7567	51.3300 
450.463	0.1406	0.0435	0.7935	-9.7046	-14.7095	1.7700	-0.8844	-5.3503	73.7732	51.2800 
450.494	0.1973	0.0747	0.8628	-5.7373	-10.3760	2.5635	-0.9229	-5.4987	73.7842	51.2300 
450.494	0.2295	0.1104	0.9229	-3.2959	-11.2305	5.2490	-0.9229	-5.6580	73.8116	51.4300 
450.525	0.2227	0.1323	0.9414	-2.1362	-15.0146	9.7046	-0.9064	-5.8392	73.8721	51.3300 
450.525	0.1934	0.1064	0.9282	-1.2817	-18.3105	14.0991	-0.8899	-6.0535	73.9819	51.4300 
450.525	0.2002	0.0254	0.8989	-0.2441	-18.9819	18.6768	-0.8899	-6.2842	74.1522	51.3300 
450.541	0.1089	-0.1885	0.8262	-0.3052	-7.8125	27.4658	-0.9668	-6.4215	74.4708	51.4300 
450.541	-0.1567	-0.2026	0.7837	3.2959	38.6963	20.7520	-1.0657	-6.1084	74.8279	51.5700 
450.556	-0.2031	-0.1904	1.2451	9.5825	85.2661	15.8081	-1.0657	-5.2570	75.0366	51.2300 
450.556	-0.3267	-0.1875	1.8032	26.0620	99.0601	22.3999	-0.9009	-4.2023	75.2344	51.2800 
450.556	-0.6445	-0.2002	2.1245	44.4336	84.8999	21.6064	-0.5328	-3.1805	75.4431	51.2800 
450.603	-0.8354	-0.2168	2.2773	37.9028	52.8564	22.3999	-0.1538	-2.4170	75.6079	51.4300 
450.603	-0.9429	-0.3643	2.0537	29.3579	-3.2959	19.6533	0.0879	-2.1588	75.8167	51.4700 
450.603	-0.8013	-0.4053	1.6763	24.1089	-49.0723	7.3853	0.2527	-2.3950	76.0199	51.4300 
450.603	-0.5151	-0.3931	1.3228	15.1367	-70.3125	-8.7280	0.3021	-2.9333	76.1133	51.4300 
450.603	-0.2222	-0.3960	0.9727	10.0098	-68.6646	-23.3154	0.2747	-3.5706	76.1023	51.4300 
450.635	0.0283	-0.4111	0.7520	7.1411	-39.7339	-34.4849	0.2032	-4.0649	75.9814	51.4300 
450.635	0.1748	-0.3306	0.7773	6.6528	7.0801	-40.5884	0.1593	-4.1803	75.7397	51.3300 
450.697	0.1748	-0.1880	1.0669	7.9956	49.3774	-37.7808	0.1923	-3.8287	75.4321	51.2800 
450.697	0.0713	-0.0449	1.4526	11.2915	70.8618	-30.2734	0.2911	-3.1641	75.1300	51.2300 
450.697	-0.0815	0.1011	1.7988	12.4512	62.9883	-22.5220	0.4395	-2.4664	74.8553	51.2300 
450.729	-0.2231	0.1802	1.9756	7.3853	30.8228	-14.6484	0.5658	-2.0215	74.6246	51.2800 
450.744	-0.3047	0.1909	1.9297	-1.2817	-13.4888	-9.2773	0.6152	-1.9830	74.4379	51.4300 
450.744	-0.3047	0.1885	1.6401	-8.1787	-52.9175	-6.8359	0.5933	-2.3566	74.2676	51.2800 
450.744	-0.1626	0.0840	1.3325	-12.3291	-75.5615	-3.4180	0.5109	-2.9993	74.1522	51.1400 
450.744	-0.0220	0.0181	0.9937	-14.7095	-83.0078	-2.4414	0.3845	-3.7848	74.0918	51.3300 
450.744	0.1294	-0.0366	0.7075	-16.9678	-73.6084	-3.2959	0.2087	-4.5703	74.0753	51.2300 
450.744	0.2407	-0.0522	0.5132	-17.3950	-50.6592	-4.6387	0.0165	-5.2405	74.0753	51.3300 
450.760	0.2988	-0.0791	0.4551	-16.5405	-23.9868	-2.6245	-0.1758	-5.7019	74.1028	51.3300 
450.760	0.2578	-0.1030	0.4380	-17.5171	-6.7749	-0.9766	-0.3955	-5.9601	74.1577	51.2800 
450.760	0.1660	-0.1177	0.4370	-18.0054	9.0332	-0.0610	-0.6427	-6.0205	74.2401	51.2800 
450.775	0.0688	-0.1025	0.4790	-18.4326	22.5220	1.6479	-0.8954	-5.8667	74.3390	51.1400 
450.791	0.0161	-0.0962	0.5513	-17.7002	32.1045	5.6763	-1.1316	-5.5591	74.4489	51.2800 
450.791	-0.0132	-0.0771	0.6313	-15.9912	37.1094	8.4229	-1.3458	-5.1636	74.5697	51.2800 
450.791	-0.0220	-0.0430	0.7124	-13.9160	35.9497	13.3057	-1.5161	-4.7516	74.6960	51.4300 
450.838	-0.0166	-0.0176	0.7646	-12.2681	31.5552	18.3105	-1.6534	-4.3835	74.8499	51.2800 
450.838	0.0205	0.0024	0.7935	-10.1929	24.2310	22.7661	-1.7688	-4.0979	75.0476	51.3300 
450.838	0.0552	0.0078	0.8101	-7.5073	15.8691	25.6958	-1.8512	-3.9111	75.2728	51.4300 
450.869	0.1035	-0.0229	0.8296	-3.9063	8.3618	28.0762	-1.9116	-3.8123	75.5420	51.3300 
450.869	0.1411	-0.0571	0.8457	-0.6714	1.8311	29.9072	-1.9556	-3.8013	75.8496	51.4300 
450.900	0.1699	-0.0815	0.8574	2.9907	-5.3101	32.2876	-1.9720	-3.8672	76.1957	51.2800 
450.900	0.1914	-0.1055	0.8569	6.4697	-9.8877	35.0342	-1.9666	-3.9990	76.5747	51.2800 
450.900	0.1694	-0.1279	0.8618	9.7656	-11.9019	35.8887	-1.9391	-4.1473	76.9812	51.3300 
450.900	0.1436	-0.1470	0.8779	10.8643	-13.7329	35.7666	-1.9006	-4.3011	77.3877	51.2300 
450.900	0.1401	-0.1519	0.8926	11.1084	-15.5640	35.0952	-1.8622	-4.4714	77.7887	51.2300 
450.900	0.1807	-0.1348	0.8887	11.3525	-20.3247	35.1563	-1.8182	-4.6857	78.1897	51.3300 
450.932	0.2285	-0.1079	0.8457	11.4746	-28.0762	36.1328	-1.7688	-4.9933	78.5852	51.2300 
450.932	0.2686	-0.1001	0.7676	11.2305	-35.3394	38.1470	-1.7194	-5.3943	78.9972	51.3300 
450.932	0.2925	-0.1460	0.6748	10.7422	-38.8184	38.9404	-1.6974	-5.8667	79.4421	51.2300 
450.947	0.2944	-0.1973	0.5742	8.9722	-35.0342	35.4004	-1.7139	-6.3446	79.8871	51.2300 
450.947	0.2773	-0.2559	0.5522	7.2021	-27.0386	29.1748	-1.7798	-6.7511	80.2991	51.2800 
450.978	0.2505	-0.3120	0.5737	4.9438	-18.5547	19.1650	-1.8842	-7.0697	80.6396	51.1400 
450.978	0.2471	-0.3462	0.6382	2.9907	-9.6436	7.5073	-1.9995	-7.2894	80.8759	51.3300 
451.010	0.2144	-0.3789	0.7266	1.1597	-2.9907	-3.8452	-2.1204	-7.4103	80.9967	51.2800 
451.010	0.1582	-0.3813	0.8096	-0.8545	-0.4272	-14.2822	-2.2412	-7.4762	81.0077	51.2800 
451.041	0.1016	-0.3359	0.8613	-1.7700	-0.2441	-22.3389	-2.3456	-7.5037	80.9253	51.0400 
451.041	0.0244	-0.2822	0.8511	-1.7090	0.7324	-25.6348	-2.4335	-7.4982	80.7825	51.1400 
451.041	-0.0352	-0.2280	0.8218	-1.4038	2.4414	-24.5361	-2.5104	-7.4432	80.6232	51.4300 
451.072	-0.0679	-0.1563	0.7612	-1.3428	3.9673	-18.6157	-2.5653	-7.3553	80.4803	51.0900 
451.072	-0.0879	0.0425	0.7017	0.1831	7.0801	-7.1411	-2.5378	-7.2180	80.3101	51.0400 
451.072	-0.0845	0.3359	0.6582	-1.0376	18.4937	18.0664	-2.3840	-7.0313	80.1837	51.1400 
451.104	-0.1401	0.3931	0.7246	-12.7563	43.2129	47.6685	-2.3181	-6.6357	80.3156	51.1400 
451.104	-0.3105	0.3799	0.9658	-27.7100	64.5752	63.3545	-2.4390	-5.9546	80.6177	51.2300 
451.104	-0.3774	0.3438	1.3218	-38.0249	81.3599	64.5752	-2.7026	-5.0757	80.9747	51.4300 
451.119	-0.4175	0.2466	1.7007	-38.6963	85.4492	52.9175	-3.0322	-4.1089	81.2878	51.4300 
451.119	-0.4512	0.1299	2.0059	-28.5034	65.8569	39.4897	-3.3014	-3.2739	81.5021	51.0400 
451.119	-0.3164	-0.0742	2.1826	-11.5356	23.1934	28.1372	-3.4552	-2.8400	81.7053	51.2300 
451.135	-0.1514	-0.2241	2.1348	5.6763	-17.8223	16.9067	-3.4552	-2.8674	81.8811	51.2800 
451.150	-0.0146	-0.3330	1.9429	18.5547	-46.6309	8.6670	-3.3398	-3.2355	82.0239	51.1400 
451.150	0.1040	-0.3511	1.6216	21.7896	-59.0210	3.1128	-3.1805	-3.8013	82.1393	51.1400 
451.150	0.1348	-0.2402	1.3506	19.9585	-46.5088	2.4414	-3.0212	-4.3231	82.2272	51.2300 
451.197	0.1875	-0.1313	1.2559	12.3291	-10.4370	3.8452	-2.9004	-4.5374	82.2711	51.3300 
451.197	0.2729	-0.1465	1.4141	3.3569	29.7852	-0.0610	-2.8674	-4.3726	82.2766	51.2300 
451.228	0.2549	-0.0962	1.7354	1.9531	50.5371	-8.2397	-2.8510	-3.9331	82.1722	51.2800 
451.228	0.1274	-0.0449	1.9756	5.9814	34.6069	-12.3901	-2.7905	-3.5376	82.0020	51.4300 
451.228	0.0054	-0.0098	1.8955	12.8784	-4.8218	-15.9912	-2.6587	-3.4772	81.7932	51.4300 
451.244	-0.0273	0.0557	1.5342	19.2871	-37.2314	-19.2871	-2.4445	-3.7628	81.5460	51.2800 
451.244	0.0215	0.1382	1.1245	23.2544	-45.4712	-20.2026	-2.1533	-4.2078	81.2659	51.2800 
451.275	0.1211	0.1914	0.8442	24.5972	-34.3628	-18.0664	-1.8182	-4.6143	80.9747	51.2800 
451.275	0.2217	0.2021	0.7236	23.8647	-16.4185	-11.0474	-1.4777	-4.8999	80.7440	51.2800 
451.275	0.2881	0.2036	0.6938	21.3013	-2.0752	0.7324	-1.1700	-5.0647	80.6342	51.2800 
451.275	0.2969	0.1709	0.7153	17.7002	6.9580	12.2070	-0.9174	-5.1251	80.6451	51.3300 
451.307	0.2612	0.1016	0.7275	14.8315	10.5591	20.7520	-0.7306	-5.1141	80.7715	51.3300 
451.307	0.1934	0.0293	0.7397	12.6953	10.3760	24.2310	-0.5988	-5.0757	80.9637	51.3300 
451.322	0.1172	-0.0376	0.7129	11.2915	10.4370	22.6440	-0.5109	-4.9988	81.1780	51.2800 
451.322	0.0420	-0.0913	0.6543	9.4604	13.1226	17.0288	-0.4724	-4.8779	81.3702	51.4700 
451.338	0.0059	-0.1069	0.6309	9.2163	21.4844	10.4370	-0.4395	-4.6637	81.5131	51.2800 
451.353	-0.0107	-0.1182	0.6484	8.1787	29.1748	3.8452	-0.4230	-4.3616	81.6064	51.0400 
451.353	-0.0151	-0.1045	0.7026	6.8359	33.9355	-0.8545	-0.4065	-3.9990	81.6229	51.3300 
451.353	-0.0186	-0.0884	0.7764	4.9438	32.1655	-4.7607	-0.3845	-3.6420	81.5845	51.2800 
451.369	-0.0156	-0.0493	0.8403	2.6855	24.5972	-9.5215	-0.3680	-3.3453	81.4801	51.3300 
451.385	0.0190	-0.0078	0.8833	-0.2441	12.5732	-13.1226	-0.3625	-3.1750	81.3153	50.9500 
451.385	0.0596	0.0278	0.8667	-2.6855	-0.6714	-14.5264	-0.3571	-3.1476	81.1176	51.4300 
451.385	0.0942	0.0376	0.7979	-5.1270	-11.0474	-16.5405	-0.3790	-3.2574	80.9088	51.0400 
451.432	0.1294	0.0420	0.6978	-6.4697	-15.5029	-20.6909	-0.4120	-3.4442	80.6671	51.3300 
451.432	0.1846	0.0562	0.6260	-6.6528	-13.7939	-25.3906	-0.4395	-3.6639	80.3815	51.1400 
451.432	0.2134	0.0767	0.6060	-6.9580	-9.1553	-28.5645	-0.4504	-3.8617	80.0629	51.4300 
451.478	0.2100	0.1177	0.6152	-7.5073	-5.6152	-30.5176	-0.4504	-4.0210	79.7058	51.4300 
451.478	0.1978	0.1152	0.6406	-8.3008	-2.0752	-31.6162	-0.4504	-4.1364	79.3323	51.2800 
451.478	0.1675	0.1128	0.6826	-9.0332	0.0000	-31.0669	-0.4669	-4.2133	78.9587	51.2300 
451.478	0.1318	0.1006	0.7212	-10.4370	1.5869	-28.9917	-0.4944	-4.2517	78.6017	51.2300 
451.510	0.0854	0.0884	0.7920	-10.3760	3.7842	-26.7944	-0.5383	-4.2407	78.2666	51.1400 
451.510	0.0449	0.1021	0.8643	-7.9346	1.7700	-23.9868	-0.5658	-4.2133	77.9590	51.1400 
451.510	0.0444	0.1440	0.8784	-4.3335	-3.1128	-19.2871	-0.5493	-4.2352	77.6733	51.0900 
451.510	0.0444	0.1841	0.8423	-1.5869	-6.9580	-13.0615	-0.4834	-4.2957	77.4316	51.4300 
451.525	0.0225	0.1973	0.7705	-0.8545	-8.7891	-7.2632	-0.4010	-4.3835	77.2394	51.3300 
451.525	-0.0083	0.1885	0.6968	-1.4038	-8.5449	-4.5166	-0.3131	-4.4604	77.0746	51.0900 
451.541	-0.0542	0.1206	0.6255	-2.3804	-8.7891	-5.1880	-0.2472	-4.5099	76.9043	51.2300 
451.541	-0.0889	-0.0386	0.5366	-2.8076	-5.4932	-9.3384	-0.2582	-4.4989	76.7780	51.0900 
451.541	-0.2051	-0.2861	0.3418	-3.5400	16.6626	-16.2354	-0.5109	-4.3890	76.9647	51.3300 
451.572	-0.3604	-0.2397	0.4233	2.3193	54.1992	-23.7427	-0.7800	-3.9276	77.2723	51.1400 
451.572	-0.3804	-0.2739	0.8315	12.2681	70.4346	-28.0762	-0.8514	-3.1476	77.2943	51.2300 
451.572	-0.3691	-0.2241	1.1602	19.4702	71.2280	-13.8550	-0.7471	-2.3236	77.1899	51.4300 
451.619	-0.4268	-0.1577	1.4063	25.5737	76.1108	5.7983	-0.5438	-1.4667	77.2009	51.1400 
451.619	-0.4321	-0.0884	1.6890	27.4658	77.0874	19.1040	-0.2856	-0.5933	77.3218	51.2800 
451.635	-0.3354	-0.0620	2.0278	21.8506	70.1294	28.9917	-0.0604	0.1868	77.5525	51.3300 
451.635	-0.2803	0.0396	2.3335	13.3057	46.8140	34.5459	0.0989	0.7690	77.8381	50.9500 
451.635	-0.2007	0.1968	2.4971	4.4556	-0.7324	36.5601	0.1923	0.9229	78.1293	51.1400 
451.650	-0.1401	0.1665	2.1660	-2.2583	-55.6030	33.2031	0.2197	0.5054	78.3984	51.2300 
451.650	0.0234	0.0396	1.6787	-4.8218	-87.2192	26.0620	0.1923	-0.3076	78.6237	51.2800 
451.650	0.1782	-0.1450	1.3198	-6.0425	-83.4351	21.5454	0.1044	-1.2030	78.8544	51.2800 
451.682	0.2671	-0.3105	1.1919	-5.9204	-44.2505	14.1602	-0.0275	-1.8237	79.0741	51.2800 
451.682	0.3389	-0.3091	1.3530	-4.2725	0.9155	13.9160	-0.1483	-1.9940	79.2664	51.2300 
451.713	0.2573	-0.3018	1.6792	-1.8921	27.0996	19.6533	-0.2417	-1.8237	79.4971	51.1400 
451.713	0.0615	-0.1938	1.9087	-1.7090	12.3291	24.5972	-0.3021	-1.6479	79.7498	51.2800 
451.713	-0.0713	-0.0996	1.7334	-5.7983	-23.4985	25.3296	-0.3790	-1.7798	79.9969	51.2800 
451.728	-0.0923	-0.0444	1.3672	-10.8032	-47.4854	23.8647	-0.4889	-2.1643	80.2112	51.0900 
451.744	-0.0381	-0.0137	1.0259	-15.1367	-55.6641	21.6064	-0.6427	-2.6752	80.3979	51.0900 
451.744	0.0405	-0.0249	0.7451	-17.5781	-48.9502	16.9678	-0.8240	-3.1860	80.5573	51.1400 
451.760	0.1187	-0.0347	0.5752	-18.7378	-30.5786	12.7563	-1.0327	-3.5706	80.6946	51.2300 
451.775	0.1816	-0.0640	0.4990	-17.5781	-9.2163	9.7656	-1.2469	-3.8068	80.8154	51.1400 
451.775	0.1919	-0.0669	0.5059	-15.6250	5.1880	10.0098	-1.4502	-3.8837	80.9363	51.2800 
451.775	0.1245	-0.0693	0.5444	-14.5874	8.8501	13.2446	-1.6370	-3.8672	81.0736	51.1400 
451.807	0.0327	-0.0732	0.5449	-11.9019	10.6201	16.7847	-1.8127	-3.7738	81.2494	51.0900 
451.807	-0.0386	-0.0410	0.5776	-9.5825	11.9629	19.8975	-1.9391	-3.6090	81.4197	51.2300 
451.822	-0.0796	-0.0410	0.6074	-8.2397	11.0474	21.7896	-2.0490	-3.4277	81.6010	51.4300 
451.822	-0.0562	-0.0244	0.6724	-6.1035	8.7280	23.9258	-2.1313	-3.2684	81.7877	51.1400 
451.822	0.0215	-0.0259	0.7515	-3.0518	0.8545	27.4658	-2.1808	-3.2080	82.0129	51.2300 
451.838	0.1123	-0.0361	0.8135	0.1221	-13.0005	34.0576	-2.2083	-3.3069	82.3151	51.0400 
451.853	0.1631	-0.0850	0.7920	2.5024	-29.6021	40.7715	-2.2302	-3.5870	82.7106	51.0400 
451.853	0.1538	-0.1377	0.6694	3.3569	-41.2598	44.0063	-2.2742	-4.0155	83.1830	51.1400 
451.853	0.1030	-0.1855	0.5273	4.4556	-40.2222	41.8701	-2.3511	-4.4604	83.6938	50.9000 
451.885	0.0503	-0.2144	0.4033	5.4932	-28.4424	34.5459	-2.4609	-4.8065	84.1937	51.0900 
451.885	0.0342	-0.2407	0.4067	5.1880	-11.1084	25.7568	-2.5983	-4.9823	84.6332	51.2800 
451.885	0.0503	-0.2930	0.4995	3.8452	3.1738	18.5547	-2.7356	-5.0098	84.9957	51.3300 
451.916	0.0425	-0.3291	0.6333	1.7700	10.2539	12.4512	-2.8729	-4.9384	85.2704	51.1400 
451.932	0.0063	-0.3384	0.7422	-0.5493	7.4463	8.2397	-3.0103	-4.8505	85.4846	51.1400 
451.932	-0.0239	-0.3223	0.7773	-3.2349	-0.1221	5.1880	-3.1641	-4.8120	85.6659	51.3300 
451.932	-0.0488	-0.2593	0.7285	-3.5400	-6.3477	4.2725	-3.3124	-4.8230	85.8197	51.0400 
451.963	-0.0684	-0.1934	0.6377	-2.5024	-10.1318	4.8828	-3.4387	-4.8669	85.9570	51.0900 
451.963	-0.0903	-0.1006	0.5039	-0.7324	-10.3760	7.9346	-3.5156	-4.8889	86.0724	51.2300 
451.994	-0.1113	0.0625	0.3789	2.7466	-5.5542	14.2822	-3.4497	-4.8505	86.0504	51.2300 
451.994	-0.1035	0.3447	0.3096	7.3853	6.6528	27.4658	-3.1531	-4.8065	85.9900	51.1400 
451.994	-0.0938	0.5825	0.2817	7.2021	28.0762	60.2417	-2.7411	-4.6637	86.2042	51.2800 
452.025	-0.1348	0.4302	0.4556	-14.1602	62.8052	76.7212	-2.5763	-4.1473	86.6107	51.2300 
452.025	-0.2007	0.2339	0.9077	-27.0996	85.0830	71.8384	-2.7026	-3.2684	87.0557	50.9500 
452.025	-0.1396	0.0044	1.4272	-32.9590	101.1353	48.5840	-2.9938	-2.2192	87.4402	51.2800 
452.041	-0.2422	-0.1836	1.9277	-38.4521	104.0039	20.6299	-3.3783	-1.1206	87.5995	51.1400 
452.041	-0.1899	-0.3804	2.3496	-18.0664	88.6230	-0.7935	-3.6584	-0.1483	87.5610	51.0900 
452.057	-0.0796	-0.5166	2.7554	11.4136	54.6265	-10.8032	-3.6530	0.4944	87.4402	51.2800 
452.057	-0.2754	-0.4995	2.6572	28.0151	-13.4277	-10.8032	-3.4442	0.5548	87.3468	51.2300 
452.088	-0.3892	-0.3438	2.0098	28.5645	-69.2749	-10.4370	-3.1915	0.0275	87.2754	50.9500 
452.088	-0.1865	-0.1948	1.4692	20.6299	-85.9375	-7.6904	-2.9938	-0.7635	87.2314	51.2300 
452.119	0.0229	-0.0044	1.0908	12.3901	-62.5000	-7.2021	-2.8455	-1.4502	87.1381	51.0900 
452.119	0.2119	0.1226	1.0176	6.8359	-15.5029	-5.6152	-2.7246	-1.7853	87.0062	51.3300 
452.119	0.3374	0.1523	1.1797	3.1738	35.5835	-8.0566	-2.6367	-1.6425	86.8414	51.1400 
452.119	0.2915	0.1294	1.4937	3.5400	62.8052	-10.9253	-2.5598	-1.1371	86.6327	51.0400 
452.151	0.1338	0.0317	1.7480	9.3994	55.2979	-19.2871	-2.4554	-0.5878	86.3745	51.0400 
452.151	-0.0586	-0.0049	1.7251	15.8691	22.9492	-26.1230	-2.2961	-0.2747	86.0449	51.1400 
452.166	-0.1313	-0.0088	1.5122	20.3247	-9.8267	-31.7993	-2.0819	-0.2802	85.6714	51.2800 
452.166	-0.0918	0.0156	1.2505	20.5078	-28.4424	-33.8135	-1.8567	-0.5109	85.2704	51.2800 
452.182	0.0186	0.0117	1.0273	16.2354	-32.2876	-33.9355	-1.6644	-0.8350	84.8749	51.2300 
452.182	0.1582	0.0195	0.8623	10.3149	-27.3438	-29.7852	-1.5271	-1.1755	84.5233	51.1400 
452.182	0.2632	0.0308	0.7534	4.2725	-14.4653	-20.9961	-1.4502	-1.4557	84.2542	51.0900 
452.228	0.2881	0.0347	0.7109	0.1221	0.8545	-11.5967	-1.4172	-1.6095	84.0729	51.0900 
452.228	0.2085	0.0229	0.7324	-1.7090	11.0474	-5.1880	-1.4172	-1.6260	83.9685	51.1400 
452.228	0.1113	0.0127	0.7617	-0.5493	13.7939	-3.7231	-1.4117	-1.5381	83.8861	51.0900 
452.228	0.0420	0.0088	0.8159	0.3052	10.9863	-6.1035	-1.4008	-1.4337	83.7817	51.0900 
452.260	0.0186	0.0220	0.8545	0.6104	4.2725	-10.1929	-1.3733	-1.3733	83.6279	51.4300 
452.260	0.0605	0.0425	0.8921	0.9155	-5.7983	-14.8315	-1.3403	-1.4227	83.4357	51.1400 
452.260	0.1201	0.0723	0.9097	0.6104	-15.8081	-18.4326	-1.3019	-1.5930	83.1995	51.1400 
452.307	0.1543	0.1099	0.8779	-0.3052	-28.1982	-19.3481	-1.2579	-1.8951	82.9413	51.2300 
452.307	0.1494	0.1196	0.7861	-1.2207	-38.6353	-19.0430	-1.2085	-2.3181	82.6831	51.2300 
452.307	0.0913	0.0869	0.6543	-2.8076	-42.4805	-21.3623	-1.1700	-2.7850	82.4139	51.0400 
452.338	0.0171	0.0249	0.5264	-5.3711	-37.2925	-28.3813	-1.1755	-3.1915	82.0953	51.0400 
452.338	0.0151	-0.0327	0.4800	-4.4556	-26.4893	-38.0859	-1.2085	-3.4827	81.7273	51.1400 
452.338	0.0161	-0.0410	0.4746	-2.9297	-14.9536	-44.1284	-1.2415	-3.6584	81.3043	50.9000 
452.338	-0.0132	-0.0063	0.4961	0.1221	-6.7749	-45.6543	-1.2250	-3.7299	80.8264	51.0400 
452.338	-0.0415	0.0347	0.5166	4.4556	-2.7466	-42.8467	-1.1316	-3.7299	80.3320	51.0900 
452.370	-0.0547	0.0776	0.5313	8.1787	-3.4180	-37.1704	-0.9833	-3.7189	79.8596	51.1400 
452.370	-0.0664	0.1104	0.5225	11.4136	-9.8877	-29.3579	-0.7745	-3.7573	79.4257	51.0900 
452.370	-0.0908	0.0674	0.4541	11.9629	-18.1885	-25.2075	-0.5603	-3.8507	79.0466	51.2300 
452.401	-0.0908	-0.0039	0.3657	11.3525	-25.5127	-26.8555	-0.3955	-3.9880	78.7170	51.0900 
452.401	-0.0659	-0.1348	0.2324	10.9863	-26.7334	-32.4707	-0.3955	-4.1858	78.5632	51.2800 
452.401	-0.0776	-0.3149	-0.0088	7.5073	-7.8735	-37.1704	-0.6921	-4.4989	78.5413	51.2300 
452.432	-0.1860	-0.3037	0.0005	6.1035	45.4102	-41.4429	-1.0876	-4.3616	78.4918	51.0400 
452.432	-0.2646	-0.2827	0.4805	16.7236	81.8481	-44.9219	-1.2085	-3.6090	78.4314	51.0400 
452.432	-0.3169	-0.1582	1.0195	16.7236	97.5342	-36.8652	-1.0931	-2.5653	78.1238	51.4300 
452.432	-0.3408	-0.0151	1.5449	17.6392	99.6704	-12.3291	-0.9283	-1.4777	77.8931	51.0400 
452.463	-0.2603	0.0352	2.0288	25.9399	106.5674	12.8784	-0.6702	-0.3900	77.9205	51.0900 
452.463	-0.2690	0.1147	2.7632	22.8882	113.7695	29.7852	-0.4120	0.7855	78.1403	51.0900 
452.463	-0.4795	0.1675	3.3755	12.3291	49.9268	41.6870	-0.2417	1.5106	78.5028	51.2300 
452.510	-0.7295	0.0874	2.9902	6.9580	-46.4478	30.6396	-0.1318	1.3568	78.7830	51.1400 
452.510	-0.4111	-0.1108	2.2466	4.8218	-108.2764	18.6768	-0.0824	0.4559	78.9862	51.2300 
452.510	-0.1304	-0.3105	1.6401	6.8970	-119.7510	10.6812	-0.0769	-0.7031	79.1620	51.1400 
452.542	0.0518	-0.4414	1.2690	6.9580	-87.0361	-5.1880	-0.1044	-1.6864	79.2664	51.2300 
452.542	0.1758	-0.3901	1.2129	8.9111	-39.6118	-18.3105	-0.1208	-2.2412	79.2114	51.0400 
452.542	0.2388	-0.2183	1.2603	10.4980	-8.6670	-16.2354	-0.0769	-2.4445	79.1071	51.1400 
452.573	0.1792	-0.1577	1.2935	9.5825	2.7466	-8.3008	-0.0110	-2.4719	79.0521	51.1400 
452.573	0.1216	-0.1357	1.2686	6.7139	0.9766	-7.0190	0.0220	-2.4774	79.0247	51.0400 
452.573	0.1064	-0.0576	1.2344	2.0752	-5.9814	-8.7280	0.0385	-2.5323	78.9642	51.0400 
452.573	0.1431	0.0137	1.1895	-3.0518	-13.7329	-8.0566	0.0275	-2.6752	78.8873	51.1400 
452.573	0.2036	0.0493	1.1294	-7.5684	-18.3105	-7.3242	-0.0165	-2.8894	78.8104	50.9500 
452.604	0.2236	0.0688	1.0264	-10.4370	-19.1650	-6.8359	-0.0879	-3.1366	78.7335	51.0900 
452.604	0.1841	0.0498	0.9194	-12.0850	-16.3574	-5.2490	-0.1868	-3.3618	78.6731	51.0400 
452.619	0.1416	0.0044	0.8115	-13.3057	-10.1929	-4.6997	-0.3076	-3.5211	78.6292	51.0400 
452.619	0.1021	-0.0366	0.7432	-13.3057	-3.2959	-3.2959	-0.4504	-3.5980	78.6127	50.9500 
452.667	0.0703	-0.0576	0.6899	-12.3901	1.4648	1.6479	-0.5933	-3.6090	78.6511	50.8000 
452.667	0.0244	-0.0581	0.6499	-11.5356	5.3101	8.9722	-0.7416	-3.5651	78.7555	50.9500 
452.667	-0.0239	-0.0586	0.6343	-10.1929	7.4463	17.6392	-0.8844	-3.4607	78.9478	51.1400 
452.713	-0.0557	-0.0474	0.6343	-8.3008	5.1880	26.1841	-1.0107	-3.3508	79.2114	51.1400 
452.729	-0.0640	-0.0239	0.6152	-6.6528	0.1221	33.8745	-1.1096	-3.2794	79.5410	51.1400 
452.729	-0.0747	-0.0156	0.5718	-5.4932	-6.1646	39.4287	-1.1865	-3.2520	79.9146	50.9500 
452.729	-0.0625	-0.0503	0.4971	-4.2725	-10.0098	41.0156	-1.2744	-3.2739	80.3375	50.7600 
452.729	-0.0464	-0.0889	0.4053	-2.9297	-8.0566	38.5742	-1.3953	-3.3014	80.8044	51.0400 
452.760	-0.0361	-0.1343	0.3506	-0.5493	-1.6479	35.7666	-1.5436	-3.2959	81.2988	51.1400 
452.760	-0.0098	-0.1753	0.3574	1.5869	6.7749	32.0435	-1.6974	-3.2410	81.7877	51.0900 
452.760	0.0298	-0.1938	0.4492	4.2114	13.5498	29.0527	-1.8127	-3.1311	82.2162	51.0400 
452.760	0.0825	-0.1953	0.6104	5.3711	11.5967	26.3672	-1.8787	-3.0267	82.5787	51.1400 
452.760	0.1167	-0.2183	0.7485	5.5542	0.7935	24.5972	-1.9171	-3.0157	82.9028	51.0400 
452.760	0.1245	-0.2822	0.8096	3.6011	-13.5498	21.3013	-1.9775	-3.1531	83.2104	51.0400 
452.792	0.1221	-0.3159	0.7778	0.7935	-23.4375	14.5264	-2.0874	-3.4113	83.4851	51.0400 
452.823	0.1226	-0.3193	0.6982	-0.6104	-22.4609	5.9204	-2.2192	-3.6969	83.6884	51.2300 
452.823	0.1157	-0.3140	0.6646	-1.3428	-11.7188	-3.2349	-2.3566	-3.8947	83.7982	51.0400 
452.823	0.0889	-0.2852	0.6821	-2.6245	-3.0518	-10.3149	-2.4939	-3.9935	83.8257	51.0400 
452.823	0.0332	-0.1978	0.6841	-3.7842	-1.0376	-14.3433	-2.6147	-4.0210	83.7817	50.9000 
452.823	-0.0127	-0.0259	0.6680	-4.0283	-1.2817	-8.9722	-2.6642	-4.0155	83.6884	51.1400 
452.854	-0.0615	0.3994	0.6787	-1.4648	7.0801	9.0332	-2.5269	-3.9661	83.5345	51.0400 
452.854	-0.0874	0.3828	0.8027	-11.1694	27.9541	38.0859	-2.4335	-3.7354	83.6554	51.0400 
452.854	-0.2788	0.2456	1.1309	-31.2500	47.3022	44.1284	-2.6038	-3.2190	83.9081	50.9500 
452.885	-0.3091	0.1841	1.5264	-41.5649	59.5703	35.7056	-2.9388	-2.5598	84.1388	51.0400 
452.885	-0.3672	0.1460	1.8945	-41.9922	65.9790	25.1465	-3.3179	-1.8237	84.2871	51.2300 
452.885	-0.4673	0.1118	2.1372	-29.6631	52.9785	20.6299	-3.6090	-1.1591	84.3750	50.9500 
452.885	-0.3599	0.0088	2.2803	-10.6201	17.2119	18.7988	-3.7299	-0.8130	84.4958	51.0900 
452.948	-0.2461	-0.0332	2.1055	1.8921	-31.8604	15.9302	-3.7189	-0.9558	84.6387	51.1400 
452.948	-0.1411	-0.0801	1.7363	8.7280	-62.4390	14.5264	-3.6365	-1.4722	84.7980	50.9500 
452.948	-0.0303	-0.0903	1.3970	9.8877	-68.0542	14.3433	-3.5431	-2.1204	84.9738	51.0900 
452.948	0.1128	-0.0659	1.2090	6.0425	-41.6260	16.2964	-3.4772	-2.6147	85.1550	51.2800 
452.948	0.2217	-0.1274	1.2822	-1.3428	2.0142	18.4937	-3.4827	-2.7301	85.3418	51.0900 
452.948	0.2705	-0.2339	1.6084	-7.3242	41.6870	13.9771	-3.5760	-2.4335	85.4956	51.0400 
452.979	0.2090	-0.2861	2.0581	-2.8687	56.0303	1.0986	-3.6475	-1.9171	85.5231	51.2300 
452.979	0.0483	-0.2744	2.3003	8.6060	24.7803	-11.1694	-3.6090	-1.5710	85.4297	51.0400 
452.979	-0.0713	-0.2188	2.0742	18.6157	-31.5552	-20.9351	-3.4552	-1.7413	85.2649	51.1400 
452.994	-0.0684	-0.1299	1.5791	24.4751	-71.5332	-30.2734	-3.2245	-2.3621	85.0232	51.0900 
452.994	0.0205	-0.0322	1.0698	26.1230	-82.2754	-39.0015	-2.9498	-3.1750	84.6826	51.2300 
453.010	0.1704	0.0586	0.6719	25.2686	-70.8008	-43.0908	-2.6367	-3.9825	84.2542	51.0400 
453.025	0.2944	0.1333	0.4219	22.7661	-44.9829	-38.4521	-2.2961	-4.6747	83.8257	51.0400 
453.057	0.3687	0.2119	0.3252	19.5923	-15.7471	-23.9258	-1.9391	-5.1526	83.4961	50.8000 
453.057	0.3716	0.2354	0.3379	15.8691	7.8125	-5.7983	-1.6095	-5.3833	83.3258	51.0900 
453.057	0.3037	0.2168	0.3979	12.0850	23.9868	9.3384	-1.3458	-5.3833	83.3093	51.1400 
453.088	0.2026	0.1763	0.4810	10.0098	30.2734	18.8599	-1.1426	-5.2240	83.3862	51.0900 
453.088	0.1021	0.1152	0.5576	8.4839	31.4331	21.0571	-0.9888	-4.9603	83.5126	51.0400 
453.119	0.0273	0.0083	0.6016	7.1411	30.0293	14.6484	-0.9064	-4.6527	83.6389	51.1400 
453.119	-0.0181	-0.0508	0.6089	5.9204	30.9448	3.3569	-0.8624	-4.3121	83.6938	51.0400 
453.119	-0.0273	-0.0869	0.6553	2.9297	34.5459	-6.2256	-0.8624	-3.9441	83.6719	51.0400 
453.151	-0.0151	-0.1230	0.7319	-1.5259	36.0718	-13.5498	-0.9064	-3.5596	83.5895	50.9500 
453.151	0.0020	-0.1475	0.8262	-6.4087	29.7241	-19.9585	-1.0052	-3.2245	83.4412	51.2300 
453.151	0.0176	-0.1553	0.8779	-10.2539	16.3574	-23.9258	-1.1426	-3.0212	83.2489	51.0400 
453.151	0.0532	-0.1440	0.8872	-11.9629	2.0142	-26.9775	-1.2909	-2.9718	83.0292	51.0400 
453.182	0.0796	-0.1001	0.8477	-12.4512	-8.2397	-30.9448	-1.4337	-3.0487	82.7655	51.0900 
453.197	0.1118	-0.0278	0.7832	-11.6577	-13.6108	-35.5225	-1.5436	-3.2135	82.4359	50.9000 
453.197	0.1597	0.0654	0.7310	-10.1929	-15.9302	-39.4897	-1.5985	-3.4222	82.0349	50.9000 
453.214	0.1943	0.1362	0.6802	-8.7891	-14.9536	-40.4663	-1.6040	-3.6639	81.5900	51.0400 
453.214	0.1968	0.2031	0.6411	-10.0098	-13.0005	-38.6353	-1.5765	-3.8947	81.1340	51.0400 
453.214	0.1626	0.2305	0.6270	-12.3291	-8.2397	-34.6069	-1.5491	-4.0759	80.7001	51.0400 
453.214	0.1221	0.2305	0.6514	-13.1836	-3.3569	-29.4189	-1.5381	-4.1803	80.3101	50.9500 
453.245	0.0854	0.2144	0.7007	-11.7188	-1.3428	-22.9492	-1.5326	-4.2407	79.9805	51.1400 
453.245	0.0425	0.1641	0.7383	-8.9722	0.3662	-16.6626	-1.5216	-4.2572	79.7223	51.0400 
453.245	-0.0083	0.1006	0.7598	-3.1738	1.0986	-12.3901	-1.4941	-4.2242	79.5355	51.0400 
453.276	-0.0244	0.0796	0.7593	2.3193	-2.9907	-10.1318	-1.4282	-4.2133	79.3817	51.0900 
453.276	-0.0112	0.0640	0.6997	5.1880	-9.9487	-7.3242	-1.3348	-4.2682	79.2664	51.1400 
453.276	0.0015	0.0684	0.6108	5.3101	-13.1836	-4.7607	-1.2360	-4.3726	79.1840	51.0900 
453.276	0.0000	0.0293	0.5020	4.2725	-13.0615	-1.5869	-1.1536	-4.4824	79.1400	50.9500 
453.291	0.0054	-0.1494	0.4111	2.3804	-4.2114	0.1831	-1.1810	-4.5428	79.2114	51.1400 
453.322	-0.2417	-0.3599	0.2563	0.6104	32.6538	-6.1035	-1.4832	-4.3561	79.5465	50.9000 
453.354	-0.4058	-0.3779	0.4897	6.6528	81.8481	-21.1182	-1.7413	-3.6365	79.8047	51.2300 
453.354	-0.3584	-0.3115	1.0713	17.0288	99.7314	-25.0244	-1.7303	-2.5708	79.7333	51.0900 
453.354	-0.3911	-0.1982	1.4961	25.7568	100.7080	-4.9438	-1.5491	-1.4722	79.6729	51.0400 
453.354	-0.4341	-0.0737	1.8232	37.4756	107.4829	23.6816	-1.2085	-0.3296	79.8157	51.0400 
453.354	-0.5654	-0.0249	2.1597	41.4429	95.0928	41.7480	-0.7965	0.7581	80.1563	51.0400 
453.354	-0.7012	0.0303	2.4175	33.6304	49.4995	52.2461	-0.4175	1.4777	80.6177	50.9000 
453.400	-0.7231	0.0547	2.3555	18.6768	-14.8926	50.2319	-0.1593	1.5875	81.0791	50.8000 
453.400	-0.5513	0.0679	1.9800	5.9814	-68.0542	35.6445	-0.0385	1.1096	81.4142	50.9500 
453.416	-0.2749	-0.0068	1.5259	-2.6855	-84.8389	17.2729	-0.0385	0.3461	81.6010	51.1400 
453.416	-0.0337	-0.1729	1.2480	-7.2021	-69.4580	3.4180	-0.1373	-0.3735	81.6943	50.8000 
453.416	0.2417	-0.2920	1.2231	-9.0332	-32.5317	-8.1177	-0.2911	-0.8514	81.6998	50.9500 
453.432	0.3921	-0.3521	1.4419	-6.8970	5.7373	-13.3057	-0.4395	-0.9723	81.6449	51.1400 
453.447	0.3179	-0.2827	1.6875	-2.6245	19.0430	-10.6201	-0.5273	-0.8624	81.5790	51.2300 
453.447	0.1426	-0.1973	1.7129	-2.8076	-0.9766	-5.1270	-0.5878	-0.8459	81.5515	51.0400 
453.479	0.0073	-0.1367	1.4268	-5.4321	-21.6675	-5.1880	-0.6647	-1.0272	81.5295	51.0900 
453.479	-0.0303	-0.1382	1.1831	-9.3994	-32.5317	-6.5918	-0.7800	-1.3129	81.4966	51.0400 
453.479	0.0259	-0.1279	1.0371	-14.7095	-35.7666	-14.0381	-0.9503	-1.6644	81.4197	51.0900 
453.494	0.1235	-0.1265	0.9048	-17.7612	-32.2876	-23.1934	-1.1481	-2.0325	81.2549	50.9500 
453.494	0.2256	-0.0972	0.7881	-19.2871	-22.9492	-28.8696	-1.3623	-2.3621	81.0132	51.0400 
453.494	0.2681	-0.0938	0.7051	-19.1650	-8.9111	-29.1138	-1.5656	-2.5983	80.7605	50.9000 
453.525	0.2461	-0.1147	0.6777	-17.6392	6.4697	-25.2686	-1.7688	-2.6917	80.5408	51.1400 
453.557	0.1895	-0.1362	0.7061	-14.8926	21.7285	-22.4609	-1.9611	-2.6038	80.3595	50.9000 
453.557	0.1001	-0.1138	0.7817	-11.7188	33.5693	-20.5688	-2.1149	-2.3456	80.1837	51.0400 
453.557	0.0034	-0.0645	0.8701	-7.0801	39.0625	-17.0898	-2.2083	-1.9666	80.0189	51.0400 
453.557	-0.0557	-0.0127	0.9492	-2.3193	39.0015	-10.9863	-2.2357	-1.5546	79.8816	50.9500 
453.588	-0.0791	0.0249	1.0166	1.0986	32.1045	-2.2583	-2.2083	-1.1810	79.8102	50.9500 
453.588	-0.0918	0.0405	1.0591	3.7231	17.4561	7.4463	-2.1533	-0.9283	79.8322	51.0900 
453.588	-0.0771	0.0547	1.0537	6.2256	-2.6245	16.4185	-2.0709	-0.8734	79.9420	51.0400 
453.604	-0.0308	0.0513	0.9775	7.7515	-21.5454	23.1934	-1.9666	-1.0162	80.1398	51.0400 
453.604	0.0332	0.0332	0.8516	8.0566	-34.1187	27.8931	-1.8677	-1.3184	80.3979	51.0400 
453.604	0.1045	0.0073	0.7119	7.6904	-38.6963	30.7617	-1.7798	-1.7194	80.7001	50.9000 
453.619	0.1479	-0.0244	0.6089	7.5073	-36.1938	32.6538	-1.7139	-2.1423	81.0406	50.8000 
453.667	0.1699	-0.0532	0.5376	7.3242	-30.0293	34.3628	-1.6699	-2.5378	81.4087	51.0900 
453.667	0.1528	-0.0991	0.5093	6.2256	-23.5596	36.2549	-1.6589	-2.8674	81.8097	50.9000 
453.667	0.1255	-0.1543	0.5132	4.3335	-17.5781	35.8276	-1.7029	-3.1201	82.2327	50.8000 
453.667	0.0913	-0.2236	0.5322	2.1362	-12.0239	32.7759	-1.8073	-3.3014	82.6721	51.0400 
453.698	0.0811	-0.2607	0.5898	0.3052	-6.8970	28.0762	-1.9391	-3.4167	83.0676	51.1400 
453.698	0.0835	-0.2856	0.6787	-1.0986	-3.9063	23.6816	-2.0819	-3.4937	83.4247	50.9500 
453.698	0.0435	-0.2847	0.7407	-3.6011	-6.5918	19.7144	-2.2357	-3.5651	83.7323	51.0400 
453.744	-0.0195	-0.2349	0.7524	-5.5542	-10.8643	16.4795	-2.3950	-3.6420	83.9960	51.0400 
453.744	-0.0898	-0.1914	0.7139	-7.6904	-14.1602	15.0757	-2.5598	-3.7189	84.2267	51.0400 
453.744	-0.1533	-0.1460	0.6538	-8.6060	-15.5640	16.1743	-2.7301	-3.7793	84.4574	50.9500 
453.744	-0.1963	-0.0771	0.5801	-7.9346	-17.3340	20.2637	-2.8619	-3.8068	84.6716	51.0400 
453.776	-0.1743	0.0308	0.4995	-5.5542	-19.1650	26.9775	-2.9059	-3.8507	84.8419	50.9000 
453.776	-0.1387	0.3408	0.4302	-1.7700	-14.7095	36.0718	-2.7521	-3.9386	84.9463	51.2300 
453.776	-0.0454	0.5073	0.3838	-2.8687	4.5776	62.3169	-2.4884	-3.9880	85.2649	51.0400 
453.807	-0.0469	0.3701	0.5635	-17.3340	37.9639	79.9561	-2.4280	-3.6969	85.8032	50.9500 
453.807	-0.1064	0.1201	0.9556	-31.4941	58.5938	78.4912	-2.6532	-3.0817	86.4459	51.0900 
453.807	-0.1929	-0.1221	1.4004	-39.1846	75.6836	52.8564	-3.0542	-2.2742	86.9788	51.0400 
453.807	-0.3701	-0.1748	1.8018	-39.9780	81.4819	23.9258	-3.4772	-1.3843	87.2040	51.0400 
453.807	-0.3550	-0.2944	2.2251	-23.0103	72.7539	8.1787	-3.7903	-0.5493	87.2644	50.7600 
453.839	-0.2568	-0.3350	2.6367	2.3193	42.5415	7.5073	-3.8452	0.0110	87.2864	51.0400 
453.870	-0.3789	-0.3408	2.5054	18.4937	-19.4092	3.1738	-3.7079	0.0220	87.3358	51.0400 
453.870	-0.3579	-0.2153	1.9326	19.7144	-62.5000	-0.4883	-3.5266	-0.4504	87.3523	50.9500 
453.870	-0.1646	-0.0640	1.5220	16.4185	-81.2988	3.4790	-3.3508	-1.1810	87.3853	50.9500 
453.870	0.0337	0.0811	1.2163	15.9302	-68.6035	8.8501	-3.1641	-1.9006	87.4347	50.9500 
453.885	0.2373	0.0811	1.1362	11.2305	-28.9917	11.4746	-2.9993	-2.3401	87.5006	50.9500 
453.885	0.3770	0.0620	1.2891	4.2114	13.6108	10.3760	-2.9169	-2.3840	87.5555	50.9500 
453.917	0.3398	0.0776	1.5962	2.9907	39.6118	10.6812	-2.8674	-2.0984	87.5885	51.1400 
453.917	0.1826	0.0488	1.8564	9.7046	35.8887	10.9253	-2.7686	-1.7413	87.6270	51.0400 
453.917	0.0449	0.0347	1.8491	17.8833	2.1973	9.0942	-2.5873	-1.6260	87.6654	51.0400 
453.963	0.0029	-0.0005	1.6016	22.3389	-34.4849	4.9438	-2.3566	-1.8732	87.6819	50.9000 
453.963	0.0322	-0.0352	1.2480	21.5454	-51.6357	-1.2207	-2.1313	-2.3566	87.6654	50.8000 
453.995	0.1089	-0.0381	0.9741	20.9961	-51.0254	-6.9580	-1.9171	-2.8894	87.5885	51.0900 
453.995	0.1743	-0.0278	0.7651	19.2871	-41.4429	-7.2632	-1.7249	-3.3783	87.4951	51.0400 
453.995	0.2017	-0.0176	0.6084	16.7847	-26.1841	-4.2725	-1.5491	-3.7628	87.4292	51.1400 
453.995	0.1924	0.0015	0.5415	15.1367	-9.6436	-0.4272	-1.3898	-3.9935	87.3907	51.0400 
453.995	0.1426	-0.0122	0.5220	12.6343	3.3569	1.7090	-1.2579	-4.0649	87.3743	51.1400 
453.995	0.0806	-0.0425	0.5435	10.5591	12.2681	0.6714	-1.1591	-3.9990	87.3688	51.0400 
453.995	0.0288	-0.0781	0.6099	9.3994	15.9912	-5.0049	-1.0931	-3.8452	87.3303	51.0400 
454.026	0.0059	-0.1157	0.6934	8.2397	12.2681	-14.7095	-1.0492	-3.6969	87.2205	51.0400 
454.041	0.0098	-0.1636	0.7153	6.4087	3.4790	-26.3672	-1.0327	-3.6310	87.0227	51.0400 
454.041	0.0171	-0.1875	0.6973	4.4556	-5.4321	-39.1235	-1.0382	-3.6584	86.7151	51.0400 
454.041	0.0122	-0.1689	0.6367	2.0752	-12.1460	-49.8657	-1.0657	-3.7683	86.3031	51.1400 
454.088	0.0293	-0.0923	0.5684	0.6714	-14.5264	-55.9082	-1.0822	-3.9166	85.7922	51.0900 
454.088	0.0703	0.0132	0.5308	0.6104	-14.7095	-56.9458	-1.0382	-4.0814	85.2045	50.9500 
454.088	0.1064	0.0986	0.4893	-0.2441	-14.4653	-53.3447	-0.9448	-4.2847	84.5947	50.9500 
454.088	0.1328	0.1533	0.4673	-0.7935	-10.9863	-48.8892	-0.8185	-4.4879	84.0070	50.9500 
454.088	0.1177	0.1611	0.4927	-2.2583	-5.6763	-45.1050	-0.6976	-4.6307	83.4521	50.9000 
454.104	0.0972	0.1436	0.5264	-4.6387	-1.5259	-44.0063	-0.6097	-4.7131	82.9248	50.9500 
454.135	0.0889	0.1611	0.5854	-4.8828	2.5024	-43.4570	-0.5383	-4.7406	82.4030	50.9000 
454.135	0.1045	0.2007	0.6543	-3.8452	3.3569	-42.0532	-0.4449	-4.7516	81.8866	50.9500 
454.135	0.1260	0.2437	0.6836	-1.2207	1.4648	-37.2925	-0.3186	-4.7791	81.4032	50.7600 
454.135	0.1318	0.2563	0.6963	2.4414	1.7090	-30.1514	-0.1648	-4.8120	80.9912	51.0400 
454.166	0.1172	0.2432	0.7036	4.2114	0.1831	-21.1792	0.0000	-4.8505	80.6616	50.9000 
454.166	0.0830	0.2314	0.6797	5.0049	-2.0142	-11.4136	0.1703	-4.8944	80.4309	50.9500 
454.198	0.0234	0.1563	0.6304	4.4556	-4.5166	-3.7842	0.3131	-4.9329	80.2881	50.9000 
454.198	-0.0464	-0.0093	0.5630	4.6997	-3.0518	-3.9673	0.3790	-4.9274	80.2112	50.8000 
454.229	-0.2603	-0.3149	0.3667	-0.1831	21.4233	-10.2539	0.1593	-4.7461	80.4364	50.7600 
454.244	-0.3818	-0.2837	0.4746	-1.7090	59.3262	-19.2261	-0.1318	-4.1583	80.6726	51.0400 
454.244	-0.4507	-0.3047	0.9077	8.9111	74.0356	-29.2358	-0.2197	-3.3014	80.6122	50.9000 
454.261	-0.4629	-0.1826	1.3257	15.2588	73.9746	-21.8506	-0.1318	-2.4335	80.4199	50.9500 
454.261	-0.4487	-0.1177	1.6226	22.2778	72.9980	-5.3101	0.0494	-1.5875	80.3210	50.8000 
454.261	-0.4087	-0.0356	1.9063	24.9023	67.6880	7.0801	0.2856	-0.8075	80.3430	50.9500 
454.261	-0.3530	0.0020	2.1934	19.7144	54.1992	19.1650	0.4944	-0.1648	80.4913	51.0400 
454.261	-0.3350	0.0273	2.3735	12.2681	20.4468	25.6958	0.6372	0.1758	80.7111	51.0400 
454.292	-0.3203	0.0962	2.2197	4.3945	-28.7476	25.2075	0.7141	0.0604	80.9253	51.0400 
454.292	-0.1753	-0.0381	1.7964	-1.1597	-66.7725	18.9819	0.7086	-0.4889	81.1011	50.9500 
454.292	-0.0547	-0.2739	1.3857	-3.1128	-67.1387	3.9673	0.6207	-1.1646	81.2109	50.9500 
454.292	0.0991	-0.4072	1.3047	-4.3945	-31.1890	-14.0381	0.4834	-1.5930	81.1890	51.0400 
454.323	0.2822	-0.4663	1.5796	-2.5024	8.7891	-26.1230	0.3625	-1.6534	81.0242	50.9000 
454.369	0.2720	-0.3799	2.0215	0.4272	26.7334	-28.6255	0.2966	-1.4502	80.7935	50.7600 
454.385	0.0986	-0.1396	2.1743	-0.7935	-1.8921	-20.0806	0.2637	-1.3843	80.5902	50.7600 
454.385	-0.0391	-0.0698	1.8413	-5.2490	-43.3960	-11.2305	0.2142	-1.7139	80.4584	51.0400 
454.417	-0.0718	-0.0244	1.4111	-8.9722	-64.5752	-8.3618	0.1263	-2.2906	80.3595	51.0900 
454.417	-0.0278	0.0098	1.0571	-13.6108	-68.1763	-4.3945	0.0110	-2.9443	80.2936	51.1400 
454.417	0.0610	0.0059	0.8037	-16.7847	-59.3262	-3.6011	-0.1373	-3.5596	80.2441	50.9000 
454.417	0.1416	-0.0146	0.6211	-18.1274	-38.5742	-5.9204	-0.3186	-4.0430	80.1947	51.0400 
454.417	0.1733	-0.0249	0.5479	-17.2729	-14.3433	-9.2163	-0.5054	-4.3231	80.1233	50.9000 
454.417	0.1509	-0.0420	0.5376	-15.5640	7.6904	-10.7422	-0.6702	-4.3671	80.0354	50.9500 
454.417	0.0830	-0.0557	0.5737	-14.0381	22.8271	-10.1929	-0.8350	-4.2133	79.9530	50.9500 
454.448	0.0020	-0.0571	0.6465	-11.7188	29.1748	-7.1411	-0.9778	-3.9221	79.8871	50.9500 
454.448	-0.0283	-0.0552	0.7192	-9.8267	28.8086	-2.5635	-1.0931	-3.5980	79.8596	50.8000 
454.448	-0.0356	-0.0493	0.7725	-7.6904	24.3530	2.9297	-1.1975	-3.3014	79.8761	50.8000 
454.463	-0.0283	-0.0498	0.8120	-5.3711	17.2729	9.8877	-1.2689	-3.0762	79.9585	50.9500 
454.479	-0.0269	-0.0469	0.8394	-3.7842	7.6294	16.9678	-1.3348	-2.9388	80.1123	51.0400 
454.494	-0.0396	-0.0527	0.8462	-0.4272	-3.5400	24.4141	-1.3678	-2.9114	80.3430	51.0900 
454.511	-0.0073	-0.0620	0.8545	2.9907	-13.3057	28.8696	-1.3788	-2.9883	80.6342	51.0400 
454.511	0.0229	-0.0552	0.7969	3.7231	-25.2686	32.8979	-1.3788	-3.1915	80.9637	50.8000 
454.511	0.0278	-0.0098	0.7222	4.0283	-30.7007	36.6821	-1.3568	-3.4662	81.3208	50.9500 
454.511	0.0210	-0.0479	0.5859	3.5400	-32.6538	39.7339	-1.3568	-3.7738	81.7273	50.9500 
454.542	0.0249	-0.0723	0.4751	2.0752	-27.2217	38.8794	-1.3953	-4.0485	82.1448	50.9500 
454.542	0.0537	-0.1406	0.4282	-0.3052	-20.3857	35.0342	-1.5051	-4.2792	82.5787	51.0400 
454.542	0.0879	-0.2046	0.4404	-1.7700	-13.9160	30.3345	-1.6644	-4.4769	82.9962	51.0400 
454.588	0.1157	-0.2441	0.4961	-2.9907	-12.2681	25.0854	-1.8512	-4.6527	83.3698	50.7600 
454.588	0.1299	-0.2588	0.5483	-4.2114	-15.0757	21.8506	-2.0380	-4.8505	83.6938	50.7100 
454.620	0.1035	-0.2593	0.5625	-5.7983	-19.4092	20.2637	-2.2357	-5.0812	84.0070	50.9500 
454.620	0.0586	-0.2480	0.5454	-8.7891	-21.7285	19.0430	-2.4664	-5.3119	84.3091	50.9000 
454.620	0.0015	-0.2192	0.4932	-10.8032	-19.4702	18.6157	-2.7136	-5.5042	84.6167	50.7600 
454.620	-0.0566	-0.1597	0.4268	-11.8408	-13.7939	19.1040	-2.9718	-5.6030	84.9188	51.0400 
454.620	-0.0991	-0.0845	0.3813	-11.5356	-6.8970	20.8130	-3.1860	-5.5756	85.1935	50.7600 
454.635	-0.1226	0.0498	0.3228	-8.4839	0.0000	23.6206	-3.2465	-5.4382	85.3143	51.0400 
454.635	-0.1621	0.3809	0.3130	-3.4180	9.6436	29.4189	-3.0487	-5.3174	85.3143	50.9000 
454.651	-0.1509	0.6284	0.3857	0.1221	25.5127	61.1572	-2.7246	-5.1196	85.5615	51.1400 
454.651	-0.1279	0.5117	0.6338	-16.0522	45.4102	82.5195	-2.6147	-4.6967	86.0724	51.1400 
454.682	-0.1318	0.2505	1.0527	-33.3862	57.6172	88.6841	-2.8345	-4.0704	86.7590	50.9500 
454.682	-0.1001	-0.1113	1.4785	-44.7388	62.9883	62.5000	-3.2794	-3.3728	87.3798	50.8000 
454.682	-0.1699	-0.3076	1.7832	-46.5088	78.4302	30.0293	-3.8068	-2.5653	87.7094	50.8000 
454.729	-0.1401	-0.3584	2.2212	-21.6675	90.6982	6.1646	-4.1254	-1.6370	87.7588	50.9500 
454.744	-0.0303	-0.3491	2.7827	5.3101	60.6079	-1.4038	-4.1528	-0.9009	87.6874	50.9500 
454.744	-0.2485	-0.2964	2.5430	19.4702	-12.5732	-0.4272	-3.9935	-0.8185	87.6599	50.8000 
454.744	-0.2866	-0.1553	2.0024	20.1416	-51.8799	6.5918	-3.7958	-1.2085	87.7039	50.9000 
454.744	-0.1870	-0.0313	1.7485	16.2964	-55.6030	12.3291	-3.6035	-1.7139	87.7972	50.8000 
454.761	0.0752	0.0659	1.5845	8.8501	-38.2080	7.9956	-3.4717	-2.1368	87.8467	51.0900 
454.761	0.3789	0.0806	1.5454	2.9297	-4.6997	-1.7700	-3.4003	-2.3291	87.8027	50.8000 
454.807	0.4570	0.0684	1.6958	5.3101	17.3340	-0.9155	-3.3289	-2.2742	87.7203	51.0400 
454.807	0.3638	-0.0117	1.7920	14.0991	11.4136	2.1362	-3.1970	-2.1863	87.6764	50.8000 
454.807	0.2568	-0.0464	1.6597	19.3481	-12.5122	-0.3662	-3.0048	-2.2961	87.6434	50.9000 
454.838	0.1919	-0.0371	1.3682	21.4844	-28.1982	-2.9907	-2.7850	-2.5763	87.5885	50.9000 
454.838	0.1655	-0.0332	1.1108	21.1792	-29.1748	-5.0659	-2.5653	-2.9114	87.5116	50.9500 
454.838	0.1943	-0.0366	0.9531	18.9819	-21.0571	-8.0566	-2.3676	-3.1915	87.4072	50.7600 
454.838	0.2373	-0.0181	0.8877	16.6626	-10.8032	-9.2773	-2.1918	-3.3893	87.2864	50.7100 
454.838	0.2759	0.0083	0.8560	13.4277	0.0000	-5.1270	-2.0380	-3.5046	87.1765	50.7600 
454.870	0.2690	0.0200	0.8696	9.8877	7.9956	-0.3662	-1.9171	-3.5266	87.1161	50.9000 
454.870	0.2158	0.0122	0.9072	7.2632	8.6670	3.2959	-1.8292	-3.5046	87.0886	51.0400 
454.870	0.1147	0.0161	0.9038	6.4087	4.4556	4.6997	-1.7523	-3.4827	87.0776	50.7100 
454.885	0.0327	0.0356	0.8843	6.8970	-1.9531	5.4321	-1.6644	-3.4827	87.0612	51.0400 
454.885	-0.0073	0.0366	0.8472	6.7749	-7.2021	2.0142	-1.5710	-3.5266	87.0172	50.9000 
454.885	0.0034	0.0337	0.8105	4.9438	-10.8643	-3.9673	-1.4886	-3.6090	86.9183	50.8000 
454.933	0.0474	0.0195	0.7817	1.6479	-14.5874	-12.4512	-1.4337	-3.7408	86.7480	50.8000 
454.933	0.0854	0.0137	0.7646	-1.5869	-19.6533	-19.7144	-1.4117	-3.9386	86.5118	50.7100 
454.933	0.0884	0.0005	0.7163	-4.2725	-27.0386	-25.0854	-1.4282	-4.2133	86.2262	50.7100 
454.933	0.0654	-0.0015	0.6377	-5.9204	-32.4707	-29.3579	-1.4502	-4.5483	85.9021	50.8000 
454.964	0.0508	-0.0132	0.5342	-5.9814	-33.0200	-33.4473	-1.4832	-4.8889	85.5341	50.9500 
454.964	0.0469	-0.0181	0.4697	-6.7749	-27.5879	-37.5366	-1.5271	-5.1910	85.1385	50.9500 
454.964	0.0552	0.0327	0.4385	-7.2632	-20.3247	-37.4756	-1.5381	-5.4382	84.7046	50.9500 
455.010	0.0713	0.0923	0.4639	-6.6528	-12.8784	-34.4849	-1.5106	-5.6195	84.2651	51.0400 
455.010	0.0659	0.1826	0.4897	-6.7749	-8.9722	-28.1372	-1.4337	-5.7568	83.8422	50.9000 
455.010	0.0483	0.2266	0.5029	-6.0425	-9.5215	-21.7285	-1.3239	-5.8887	83.4576	50.6100 
455.042	0.0132	0.2339	0.4639	-5.4932	-12.0850	-16.2964	-1.1975	-6.0260	83.1171	51.0400 
455.042	-0.0366	0.1943	0.3896	-5.6152	-13.6719	-13.7329	-1.0657	-6.1523	82.7930	50.7600 
455.042	-0.0640	0.1294	0.2979	-6.1035	-12.6953	-15.1978	-0.9338	-6.2402	82.4414	50.8000 
455.042	-0.0659	0.0352	0.2178	-6.6528	-8.3618	-19.4092	-0.8569	-6.2347	82.0734	50.9500 
455.042	-0.0610	-0.1035	0.1323	-6.3477	-2.6245	-26.8555	-1.0547	-6.1798	81.9855	51.0400 
455.073	-0.0879	-0.3950	0.0122	-7.5073	9.7046	-37.2314	-1.5051	-6.2677	81.9580	50.7600 
455.088	-0.2900	-0.4375	-0.0327	-7.7515	54.5654	-52.1240	-2.0325	-5.9985	81.8262	50.9000 
455.088	-0.4839	-0.4248	0.3730	2.1973	89.5386	-61.8286	-2.3730	-5.2185	81.6614	50.8000 
455.104	-0.5688	-0.2461	0.8662	3.7842	108.2153	-51.8799	-2.4664	-4.0540	81.3373	51.0900 
455.104	-0.5435	-0.1133	1.4087	6.6528	118.1641	-17.6392	-2.4170	-2.7411	80.9802	50.9500 
455.104	-0.3267	-0.0566	2.0103	18.5547	127.3804	15.5640	-2.2467	-1.4117	80.9583	51.0400 
455.135	-0.1919	0.0107	2.7148	18.0054	124.0234	38.9404	-2.0490	-0.0934	81.2054	50.9000 
455.135	-0.3174	0.0415	3.2168	10.6812	71.6553	49.9268	-1.9061	0.8240	81.6064	50.9500 
455.135	-0.6152	0.0552	3.0474	2.9297	-27.8320	37.5977	-1.8292	0.8624	81.9470	50.9500 
455.135	-0.4116	-0.1533	2.3257	0.4883	-106.5063	18.6768	-1.8182	0.0220	82.1613	50.8000 
455.182	-0.0996	-0.3979	1.6133	0.9766	-119.0186	0.1831	-1.8677	-1.1316	82.2711	50.7600 
455.182	0.2202	-0.5591	1.1431	1.1597	-79.8950	-17.1509	-1.9720	-2.1039	82.2766	50.7600 
455.182	0.4019	-0.5176	1.1299	2.4414	-20.7520	-34.1797	-2.0709	-2.5708	82.0624	50.9000 
455.229	0.4155	-0.3354	1.3252	6.8359	13.3057	-36.8042	-2.0709	-2.6093	81.7383	50.9500 
455.229	0.3062	-0.1846	1.4321	7.2632	19.8975	-29.4800	-2.0215	-2.4939	81.4362	50.9000 
455.229	0.2080	-0.1055	1.3887	5.1270	14.8315	-21.8506	-1.9720	-2.3785	81.1945	50.9000 
455.229	0.1377	-0.0479	1.3320	0.6104	10.8032	-17.2119	-1.9501	-2.2906	80.9967	50.9000 
455.229	0.0879	0.0005	1.3325	-4.9438	4.0894	-11.6577	-1.9720	-2.2467	80.8374	50.8000 
455.260	0.0757	0.0166	1.3018	-7.5073	-5.4321	-9.4604	-2.0215	-2.2906	80.7111	50.8000 
455.260	0.0532	0.0229	1.1855	-8.9722	-12.9395	-10.0098	-2.0874	-2.4115	80.5902	50.7600 
455.276	0.0234	0.0200	1.0405	-9.9487	-13.5498	-10.6201	-2.1643	-2.5488	80.4584	50.8000 
455.276	0.0220	0.0059	0.9204	-9.0942	-7.5073	-9.2773	-2.2357	-2.6367	80.3375	50.7100 
455.276	0.0444	-0.0117	0.8623	-8.1787	0.3662	-6.3477	-2.3016	-2.6532	80.2496	50.7600 
455.307	0.0791	-0.0386	0.8340	-7.2632	5.0049	-1.6479	-2.3785	-2.6257	80.2057	51.0400 
455.307	0.1128	-0.0435	0.8354	-6.4087	5.8594	5.4321	-2.4500	-2.5983	80.2386	51.0400 
455.307	0.1030	-0.0479	0.8164	-5.1270	4.4556	12.6343	-2.5104	-2.5708	80.3430	50.8000 
455.338	0.0562	-0.0503	0.7773	-3.7842	2.5635	18.9819	-2.5708	-2.5488	80.5133	50.9000 
455.338	0.0317	-0.0488	0.7412	-2.6245	0.7935	23.6816	-2.6202	-2.5269	80.7330	50.8000 
455.338	0.0396	-0.0376	0.6987	0.1221	0.1831	28.6255	-2.6367	-2.5159	80.9967	50.9000 
455.338	0.0483	-0.0435	0.6729	2.9907	-0.4883	33.8745	-2.6367	-2.5104	81.3153	50.9500 
455.354	0.0400	-0.0454	0.6353	4.6997	-2.9907	38.6353	-2.6147	-2.5214	81.6779	50.8000 
455.385	0.0137	-0.0669	0.5898	5.4932	-5.6152	41.6260	-2.5983	-2.5488	82.0898	51.2300 
455.385	-0.0078	-0.0957	0.5186	5.9814	-7.2632	42.2363	-2.5983	-2.5818	82.5293	50.8000 
455.385	-0.0073	-0.1338	0.4609	6.2866	-4.3335	39.6118	-2.6257	-2.5983	82.9797	50.7600 
455.401	0.0083	-0.1709	0.4663	7.4463	0.6104	36.6211	-2.6752	-2.5873	83.4247	50.9000 
455.401	-0.0039	-0.1782	0.5361	8.8501	0.3052	35.0342	-2.7026	-2.5543	83.8422	50.7600 
455.401	-0.0044	-0.2017	0.6030	8.7891	-5.9204	33.0811	-2.7246	-2.5708	84.2377	50.9000 
455.448	-0.0376	-0.2295	0.6055	6.2866	-14.2822	27.5879	-2.7740	-2.6642	84.6057	50.8000 
455.448	-0.0981	-0.2207	0.5562	3.0518	-19.5923	22.5220	-2.8619	-2.7850	84.9353	50.8000 
455.448	-0.1338	-0.2017	0.4644	-0.7935	-18.3105	18.3105	-3.0048	-2.8894	85.2429	50.7100 
455.479	-0.1484	-0.1509	0.3818	-3.2349	-12.0239	15.3198	-3.1696	-2.9059	85.5231	50.7600 
455.479	-0.1528	-0.0840	0.3423	-3.9063	-5.1270	14.4653	-3.2959	-2.8180	85.7263	51.0900 
455.479	-0.1489	-0.0059	0.3042	-3.1128	-2.9907	17.2729	-3.3234	-2.6697	85.8032	50.7600 
455.479	-0.1152	0.1909	0.2358	0.2441	-2.5635	24.7803	-3.1201	-2.6147	85.7648	50.8000 
455.494	-0.0767	0.5903	0.1680	6.9580	2.4414	46.9360	-2.6917	-2.6587	85.9186	50.9000 
455.494	-0.0503	0.4663	0.2422	-0.3662	20.8740	81.7261	-2.3016	-2.5763	86.4459	50.7600 
455.510	-0.1333	0.1919	0.5332	-21.9116	43.2129	86.1816	-2.2961	-2.1478	87.0667	50.8000 
455.526	-0.1914	-0.1519	0.9023	-36.0107	60.7910	63.2935	-2.6532	-1.4667	87.6929	50.7100 
455.557	-0.2607	-0.3735	1.3276	-45.6543	81.8481	13.5498	-3.1641	-0.6262	87.9346	51.0400 
455.557	-0.3379	-0.3579	1.8369	-44.8608	103.2104	-14.1602	-3.6914	0.4120	87.7863	50.8000 
455.557	-0.1572	-0.3931	2.3657	-15.3198	122.1313	-17.2729	-3.9661	1.5930	87.5116	50.8000 
455.588	-0.0649	-0.3740	3.0933	21.4233	104.9194	-11.5967	-3.8782	2.7246	87.2699	50.9500 
455.588	-0.3481	-0.1880	3.1245	35.8276	7.9956	4.0283	-3.5321	3.0707	87.1985	50.6100 
455.588	-0.3960	0.0264	2.4712	26.4893	-61.8896	26.8555	-3.2025	2.6257	87.3633	50.8000 
455.604	-0.2373	0.1416	1.9702	8.6670	-72.9370	38.8794	-3.0157	1.9446	87.6764	50.9000 
455.619	-0.0239	0.1377	1.6255	-6.4697	-52.1851	33.1421	-2.9938	1.3733	87.9620	50.7100 
455.619	0.1597	0.0952	1.4712	-8.8501	-14.0991	20.6299	-3.0377	1.1041	88.1268	50.8000 
455.619	0.2437	0.0161	1.5698	0.3662	18.1885	11.7798	-3.0432	1.1591	88.1873	50.6100 
455.651	0.1890	-0.0225	1.6855	13.8550	24.1089	10.2539	-2.9224	1.3623	88.2147	50.8000 
455.682	0.1274	-0.0527	1.6353	21.4233	4.2725	9.5825	-2.7136	1.4282	88.2477	50.8000 
455.698	0.0479	-0.0703	1.4316	22.3389	-13.7329	8.7280	-2.4884	1.3074	88.2861	50.7600 
455.698	0.0215	-0.0679	1.2271	18.7378	-19.6533	9.4604	-2.2961	1.1096	88.3301	50.7600 
455.698	0.0864	-0.0635	1.0869	14.0381	-18.2495	9.5215	-2.1478	0.9009	88.3795	50.7100 
455.714	0.1851	-0.0396	0.9551	9.4604	-11.5356	10.4370	-2.0490	0.7086	88.4344	51.0400 
455.714	0.2539	-0.0151	0.8726	6.6528	-1.7090	14.2822	-1.9775	0.5768	88.5168	50.9500 
455.714	0.2603	-0.0444	0.8291	5.4932	6.8970	17.1509	-1.9281	0.5273	88.6322	50.7600 
455.714	0.2002	-0.0684	0.8159	6.1646	8.9722	17.2119	-1.8896	0.5273	88.7585	50.7100 
455.745	0.0850	-0.0820	0.7744	6.7749	6.9580	14.4043	-1.8512	0.5603	88.8684	50.9500 
455.745	0.0103	-0.0737	0.7246	7.5073	5.3101	9.6436	-1.8018	0.6042	88.9398	50.7100 
455.745	-0.0029	-0.0708	0.6851	7.6294	3.7842	4.5166	-1.7468	0.6482	88.9508	50.5600 
455.776	0.0215	-0.0752	0.6523	6.2866	2.5635	-0.4272	-1.7084	0.6647	88.9233	50.8000 
455.776	0.0562	-0.0859	0.6631	4.0283	-0.6104	-4.9438	-1.6919	0.6427	88.8519	50.6100 
455.776	0.0825	-0.1079	0.6777	1.2817	-5.5542	-10.5591	-1.7194	0.5548	88.7421	50.7100 
455.823	0.0845	-0.1055	0.6636	-2.1973	-12.3901	-17.8223	-1.7798	0.4010	88.5663	50.5600 
455.838	0.0767	-0.0659	0.6323	-3.7842	-19.8975	-25.3296	-1.8457	0.1703	88.3136	51.0400 
455.838	0.0562	0.0103	0.5459	-4.6997	-23.7427	-32.0435	-1.8896	-0.0989	87.9565	50.7600 
455.869	0.0488	0.0547	0.4805	-5.4932	-20.7520	-36.4380	-1.9006	-0.3680	87.5226	50.7100 
455.869	0.0488	0.0996	0.4365	-6.1646	-13.9771	-39.5508	-1.8842	-0.5823	87.0282	50.5200 
455.869	0.0454	0.1201	0.4233	-7.0190	-4.0894	-39.6729	-1.8512	-0.7141	86.5118	50.9000 
455.869	0.0430	0.1440	0.4624	-8.1177	6.1646	-38.2080	-1.8237	-0.7361	86.0010	50.5600 
455.869	0.0381	0.1992	0.5269	-7.9956	11.7798	-33.0200	-1.7743	-0.6866	85.5121	51.0400 
455.901	0.0386	0.2075	0.5884	-5.3711	14.4043	-25.5737	-1.7084	-0.5988	85.0891	50.6100 
455.901	0.0225	0.2026	0.6519	-2.2583	13.0005	-19.2871	-1.6260	-0.5054	84.7485	50.9500 
455.901	0.0117	0.1709	0.6958	1.0986	8.9111	-15.2588	-1.5271	-0.4340	84.4629	50.8000 
455.901	-0.0215	0.1519	0.7168	1.6479	3.2959	-12.2070	-1.4282	-0.3955	84.2157	50.7100 
455.916	-0.0645	0.0972	0.6758	0.7935	-2.4414	-10.6812	-1.3513	-0.3900	83.9960	50.7600 
455.916	-0.1182	0.0518	0.6045	0.4883	-7.8125	-12.7563	-1.2909	-0.4065	83.7708	50.7100 
455.916	-0.1621	-0.0151	0.5278	0.9766	-10.9253	-18.3716	-1.2579	-0.4175	83.5236	50.5600 
455.963	-0.1924	-0.1807	0.4507	1.5259	-10.0708	-25.6348	-1.3348	-0.4175	83.3533	50.8000 
455.963	-0.2871	-0.3848	0.2983	-0.2441	7.0801	-34.1187	-1.6205	-0.3955	83.3643	50.7600 
455.963	-0.3809	-0.3550	0.2988	4.7607	38.0249	-36.8652	-1.9391	-0.0989	83.4192	50.5600 
455.963	-0.3677	-0.2729	0.5562	16.0522	62.4390	-29.5410	-2.0435	0.5438	83.3972	50.7100 
455.995	-0.3774	-0.1890	0.8643	22.4609	81.5430	-9.0942	-1.9226	1.4337	83.2874	50.7100 
455.995	-0.4897	-0.0708	1.2183	30.7617	100.5859	16.2354	-1.6425	2.5214	83.3038	50.7600 
455.995	-0.4761	-0.0327	1.7246	36.8042	109.5581	36.7432	-1.2579	3.6914	83.5291	50.8000 
456.026	-0.4126	0.0181	2.2944	29.8462	104.6143	52.0630	-0.8899	4.8065	83.9301	50.9000 
456.026	-0.4468	0.0884	2.8203	18.3105	76.7822	55.4199	-0.6152	5.6909	84.4025	50.8000 
456.026	-0.5342	0.2056	3.0547	6.9580	9.5825	46.0205	-0.4449	5.9985	84.8090	50.7100 
456.073	-0.5234	0.1167	2.5952	-1.2817	-56.1523	27.4658	-0.3790	5.6140	85.0507	50.7100 
456.073	-0.2803	-0.0952	2.1431	-6.4697	-86.6699	15.2588	-0.4120	4.8285	85.1770	50.9500 
456.073	0.0029	-0.2627	1.8140	-6.7749	-95.1538	10.3149	-0.5109	3.8672	85.2814	50.8000 
456.104	0.1909	-0.3213	1.5586	-8.4839	-77.0264	8.4229	-0.6482	2.9938	85.3857	50.7600 
456.104	0.2637	-0.2632	1.3882	-9.4604	-53.2227	10.3149	-0.7965	2.3291	85.4956	50.8000 
456.104	0.2456	-0.2275	1.3120	-9.0942	-34.6680	17.6392	-0.9338	1.8677	85.6604	50.7600 
456.120	0.1938	-0.2197	1.2949	-9.0332	-28.0151	21.6675	-1.0712	1.5216	85.8746	50.6100 
456.120	0.1714	-0.1968	1.2915	-11.7188	-31.8604	20.7520	-1.2195	1.1646	86.0834	50.9000 
456.135	0.1699	-0.1538	1.2339	-16.6016	-38.5742	19.2871	-1.4063	0.7471	86.2756	50.7100 
456.135	0.1836	-0.1216	1.1606	-18.7988	-44.0674	17.1509	-1.6205	0.2747	86.4459	50.7100 
456.135	0.1865	-0.1382	1.0449	-19.0430	-45.7153	15.0757	-1.8457	-0.2252	86.5942	50.7100 
456.151	0.1660	-0.1450	0.9189	-17.5781	-43.3350	11.6577	-2.0654	-0.7196	86.7206	50.7100 
456.151	0.1367	-0.1475	0.8120	-14.5874	-36.7432	9.8267	-2.2687	-1.1536	86.8359	50.8000 
456.166	0.1006	-0.1274	0.7305	-12.9395	-28.5645	9.4604	-2.4500	-1.4941	86.9348	50.7600 
456.182	0.0649	-0.1011	0.6509	-13.0005	-22.3389	10.8032	-2.6202	-1.7578	87.0337	50.5200 
456.198	0.0371	-0.0942	0.5996	-12.9395	-15.8081	13.1836	-2.7905	-1.9336	87.1545	50.7100 
456.198	0.0161	-0.0796	0.5601	-12.3291	-9.7656	17.0288	-2.9498	-2.0380	87.3029	50.8000 
456.213	-0.0078	-0.0874	0.5352	-10.7422	-5.4932	21.9727	-3.1036	-2.0709	87.4951	50.6100 
456.213	-0.0332	-0.0889	0.5161	-8.6060	-5.1270	26.3672	-3.2465	-2.0819	87.7368	50.7100 
456.229	-0.0288	-0.0884	0.4990	-5.0049	-4.3945	29.1138	-3.3563	-2.0764	88.0115	50.7600 
456.229	0.0161	-0.0532	0.4766	0.0000	-5.0049	30.8838	-3.4058	-2.0929	88.2861	50.7100 
456.229	0.0796	-0.0283	0.4580	5.3101	-3.6621	34.3628	-3.3838	-2.1478	88.5773	50.5200 
456.276	0.1074	-0.0269	0.4136	9.8267	-0.7324	36.0718	-3.3124	-2.2137	88.8904	50.9000 
456.276	0.1118	-0.0708	0.4355	12.1460	7.8125	36.0107	-3.2410	-2.2137	89.2145	50.9000 
456.276	0.1289	-0.1138	0.5171	12.6343	14.5264	36.1328	-3.1750	-2.1368	89.5551	50.8000 
456.307	0.1719	-0.1484	0.6172	12.7563	14.8926	37.9639	-3.1201	-2.0380	89.9121	50.7600 
456.307	0.2305	-0.1880	0.7183	11.4746	10.1318	40.4663	-3.0872	-1.9885	90.2966	50.7600 
456.338	0.2866	-0.2344	0.7798	10.8032	2.9297	42.2974	-3.0652	-2.0215	90.7086	50.9000 
456.338	0.3076	-0.2637	0.8081	9.6436	-4.5776	40.8325	-3.0652	-2.1368	91.1261	50.7100 
456.338	0.2866	-0.2793	0.7979	8.1177	-7.9346	35.2783	-3.0872	-2.2906	91.5051	50.7600 
456.354	0.2627	-0.2920	0.7817	6.7139	-4.3335	28.7476	-3.1256	-2.4280	91.8292	50.8000 
456.354	0.2373	-0.3120	0.8013	5.7983	4.5166	20.6909	-3.1750	-2.4774	92.0709	50.9000 
456.354	0.2290	-0.3613	0.8618	4.6997	12.8174	11.1084	-3.2410	-2.4390	92.2247	50.7600 
456.370	0.2197	-0.4028	0.9277	1.5259	18.0054	1.2207	-3.3344	-2.3346	92.2852	50.5600 
456.401	0.2104	-0.4360	0.9897	-1.3428	17.8833	-7.4463	-3.4552	-2.2137	92.2522	50.8000 
456.401	0.2305	-0.4497	1.0361	-5.4932	13.3667	-14.8926	-3.6090	-2.1368	92.1533	51.0400 
456.416	0.2070	-0.4141	1.0625	-8.7891	7.3242	-18.9819	-3.7903	-2.1204	91.9940	50.7100 
456.416	0.1431	-0.3525	1.0869	-12.0239	-1.4648	-21.8506	-3.9771	-2.1643	91.8018	50.9500 
456.416	0.0742	-0.2637	1.0107	-14.3433	-15.1367	-23.3765	-4.1748	-2.3126	91.5875	50.8000 
456.448	0.0127	-0.1641	0.8833	-14.9536	-24.4141	-24.7192	-4.3616	-2.5543	91.3513	50.9500 
456.448	-0.0156	-0.0181	0.7554	-12.7563	-26.7334	-23.7427	-4.4824	-2.8125	91.0767	50.9500 
456.448	-0.0845	0.4951	0.6362	-4.0283	-21.5454	-10.8032	-4.3396	-3.0817	90.7031	50.9000 
456.479	-0.1250	0.4146	0.5625	-9.3384	2.5635	22.2168	-4.1528	-3.1476	90.5823	50.8000 
456.479	-0.3516	0.1636	0.6904	-27.7710	22.8882	50.1099	-4.2242	-2.8510	90.7306	50.8000 
456.511	-0.5977	-0.0713	0.8604	-39.9170	31.0059	44.3726	-4.5374	-2.3236	90.9723	50.7100 
456.511	-0.5771	-0.1021	0.9014	-43.0298	57.5562	14.5264	-4.9384	-1.6095	91.0217	50.7100 
456.511	-0.6836	-0.1270	1.0898	-40.5273	86.6089	-17.4561	-5.3284	-0.6152	90.7251	50.5600 
456.511	-0.5942	0.0200	1.4453	-23.3154	91.7969	-29.9072	-5.5536	0.4010	90.2142	50.9000 
456.542	-0.4873	0.1108	1.8306	-8.9722	94.4824	-23.8037	-5.6085	1.3898	89.7198	50.7600 
456.542	-0.5474	-0.0820	2.2837	-8.1787	91.6748	-17.2119	-5.6525	2.3566	89.3463	50.5600 
456.542	-0.4575	-0.1904	2.7236	-11.5967	85.9375	-20.6299	-5.7568	3.2574	89.0057	50.8000 
456.542	-0.3887	-0.0244	3.0439	-10.3149	62.2559	-16.9678	-5.8557	3.9496	88.6761	50.7100 
456.573	-0.5581	0.0645	3.0229	-3.0518	13.0615	-6.9580	-5.8722	4.2297	88.4674	51.0400 
456.573	-0.5728	0.1514	2.5728	4.5776	-42.8467	-5.0049	-5.7843	3.9661	88.3356	50.9000 
456.573	-0.3828	0.1235	1.9873	8.4839	-65.8569	-13.7939	-5.6470	3.3673	88.1653	51.0400 
456.573	-0.2192	0.0718	1.5068	12.1460	-56.7017	-16.1743	-5.4822	2.7795	87.9620	50.7600 
456.588	-0.1289	0.0278	1.1919	17.3340	-31.6162	-14.8315	-5.2844	2.4005	87.7533	50.7100 
456.604	-0.0728	0.0054	1.0991	19.3481	-2.6245	-9.0332	-5.0592	2.3071	87.5720	50.8000 
456.651	-0.0493	-0.0093	1.1479	19.5923	16.7847	-1.4648	-4.8395	2.4335	87.4567	51.0400 
456.651	-0.0439	-0.0498	1.2241	19.6533	18.6157	6.9580	-4.6252	2.6257	87.4347	50.7600 
456.651	-0.0620	-0.1138	1.2007	21.6064	12.4512	10.9253	-4.4110	2.7795	87.4841	50.7600 
456.651	-0.0762	-0.1631	1.1060	24.2920	4.8218	11.1694	-4.1913	2.8564	87.5665	50.7100 
456.651	-0.0654	-0.1895	1.0029	26.0620	0.1831	6.7139	-3.9716	2.8839	87.6379	50.7100 
456.698	-0.0264	-0.1992	0.8843	26.7944	-1.6479	0.2441	-3.7518	2.8674	87.6654	50.7100 
456.698	0.0396	-0.1841	0.7642	26.2451	-2.5024	-5.6152	-3.5486	2.8125	87.6379	50.9000 
456.730	0.0962	-0.1777	0.6162	27.4048	0.0000	-10.6201	-3.3563	2.7356	87.5555	50.6100 
456.730	0.1211	-0.1514	0.5039	25.8789	2.1362	-15.9302	-3.1805	2.6532	87.4292	50.8000 
456.730	0.0894	-0.1240	0.4121	23.5596	6.2866	-17.5171	-3.0212	2.5928	87.2699	50.8000 
456.730	0.0366	-0.1162	0.3813	20.2026	13.6719	-20.7520	-2.9004	2.6422	87.0831	50.7100 
456.730	-0.0410	-0.1221	0.3735	18.0664	17.8833	-26.0620	-2.8180	2.7960	86.8744	50.7600 
456.730	-0.0918	-0.1045	0.4038	16.3574	19.2261	-31.1890	-2.7356	3.0157	86.5833	50.7100 
456.761	-0.1147	-0.1025	0.4121	14.7705	19.8364	-39.0625	-2.6807	3.2629	86.2372	50.7600 
456.761	-0.1108	-0.1455	0.4644	13.3667	20.2637	-47.8516	-2.6477	3.5046	85.8197	50.8000 
456.761	-0.0869	-0.1118	0.4878	10.5591	15.2588	-55.1758	-2.6367	3.6804	85.2979	50.7100 
456.792	-0.0674	-0.0854	0.4961	7.2021	13.7939	-62.8662	-2.6477	3.8177	84.6936	50.6100 
456.792	-0.0186	-0.0366	0.5366	3.6621	13.8550	-67.2607	-2.6642	3.9276	84.0070	50.6100 
456.823	0.0366	0.0337	0.6187	1.0376	12.6953	-68.6646	-2.6752	3.9880	83.2709	50.7100 
456.823	0.0889	0.0762	0.7100	-0.0610	6.9580	-66.9556	-2.6752	3.9771	82.5403	50.7600 
456.823	0.1333	0.0801	0.7729	0.7935	-0.7935	-65.8569	-2.6697	3.8782	81.8372	50.5600 
456.855	0.1807	0.1040	0.8076	2.0752	-6.1646	-64.4531	-2.6422	3.6969	81.1450	50.6100 
456.855	0.2104	0.1328	0.8223	2.9297	-7.3242	-61.4624	-2.5983	3.4882	80.4858	50.6100 
456.855	0.2266	0.1270	0.8760	2.6245	-4.3945	-57.8003	-2.5433	3.3014	79.8706	50.9500 
456.855	0.2222	0.0723	0.9292	1.0376	-1.8311	-55.6030	-2.5159	3.1476	79.2938	50.6100 
456.901	0.1719	0.0225	0.9731	-1.2207	7.5073	-54.3213	-2.5269	3.0817	78.7390	50.9500 
456.901	0.0981	0.0078	1.0977	-2.5024	23.3765	-53.3447	-2.5653	3.1970	78.1897	50.6100 
456.948	0.0693	0.0371	1.3213	0.4272	36.6211	-48.7671	-2.5763	3.4717	77.6624	50.9000 
456.948	0.0674	0.0786	1.5942	5.6152	33.9966	-40.7104	-2.5378	3.7738	77.2064	50.6100 
456.948	0.1309	0.1191	1.8340	10.6201	10.9863	-32.7148	-2.4280	3.8892	76.8439	50.5200 
456.948	0.2256	0.1699	1.9575	12.0239	-26.7944	-26.7334	-2.2852	3.6530	76.5582	50.7600 
456.948	0.2705	0.1499	1.8164	8.8501	-65.8569	-25.1465	-2.1588	3.0048	76.3275	50.8000 
456.948	0.2603	0.0879	1.4609	3.7231	-89.6606	-27.5879	-2.0874	2.0709	76.0858	50.7100 
456.948	0.1318	-0.0479	0.9912	0.1831	-84.2896	-25.6958	-2.0764	1.1206	75.8771	50.9000 
456.979	-0.1621	-0.2070	0.6709	0.3662	-36.7432	-28.1982	-2.1533	0.6317	75.7123	50.8000 
456.979	-0.4902	-0.0801	0.7100	11.4136	23.8037	-27.5269	-2.1313	0.8789	75.4541	50.6100 
456.979	-0.6680	0.1021	1.0386	24.9023	68.0542	-9.8877	-1.8402	1.6479	75.1300	50.7100 
456.995	-0.7583	0.0923	1.4575	34.3018	75.5615	10.9863	-1.4557	2.5653	75.0531	50.7600 
457.010	-0.8447	0.0840	1.7051	34.6680	41.5039	28.4424	-1.0492	3.2245	75.1904	50.6100 
457.010	-0.8462	0.0215	1.7036	28.1982	-7.0190	40.3442	-0.6976	3.4167	75.4926	50.5600 
457.026	-0.6963	-0.0474	1.5273	15.9912	-44.1895	42.4805	-0.4724	3.1860	75.8661	50.5600 
457.042	-0.4546	-0.1626	1.2891	3.3569	-56.4575	37.9639	-0.4175	2.7466	76.2726	50.6100 
457.073	-0.2495	-0.2627	1.0264	-5.3101	-47.8516	28.0762	-0.5164	2.3071	76.6351	50.7100 
457.073	-0.1392	-0.3496	0.8774	-6.4087	-24.2920	11.9629	-0.6976	2.0270	76.9043	50.7600 
457.073	-0.1313	-0.3667	0.8804	-1.2817	3.4180	-1.3428	-0.8624	2.0050	77.0416	50.8000 
457.104	-0.1870	-0.3247	1.0186	3.0518	20.9351	-9.2773	-0.9558	2.2083	77.0581	50.6100 
457.104	-0.2495	-0.2788	1.1763	4.8828	21.2402	-11.2915	-0.9943	2.4774	77.0032	50.8000 
457.104	-0.2905	-0.2695	1.2329	3.2959	10.8032	-10.9863	-1.0327	2.6642	76.9427	51.0400 
457.151	-0.3115	-0.2295	1.1641	-2.0142	-0.4883	-10.9253	-1.1041	2.7466	76.8823	50.7100 
457.151	-0.3120	-0.1494	1.0537	-9.1553	-7.7515	-12.2681	-1.2360	2.7631	76.7944	50.5600 
457.151	-0.2783	-0.0547	0.9492	-16.6016	-8.3008	-13.4277	-1.4063	2.7576	76.6626	50.5600 
457.151	-0.2261	0.0425	0.8740	-22.2168	-3.1128	-12.1460	-1.5985	2.7795	76.4978	50.7600 
457.151	-0.1660	0.1099	0.8525	-25.9399	0.4883	-9.7656	-1.8073	2.8235	76.3385	50.6100 
457.167	-0.1313	0.1533	0.8345	-26.4893	0.6714	-5.2490	-1.9995	2.8619	76.2067	50.9000 
457.167	-0.1143	0.1836	0.8335	-25.8789	-2.0752	0.7324	-2.1698	2.8729	76.1243	50.9000 
457.167	-0.1055	0.1953	0.8091	-24.1699	-7.0190	10.0098	-2.3181	2.8345	76.1298	50.5600 
457.198	-0.0889	0.1626	0.7622	-21.4844	-12.2681	17.8223	-2.4445	2.7466	76.2231	50.7100 
457.198	-0.0879	0.1211	0.7065	-19.7754	-16.4185	23.5596	-2.5543	2.6147	76.3879	50.7600 
457.198	-0.0884	0.0786	0.6304	-18.9819	-16.4795	27.1606	-2.6642	2.4884	76.6022	50.7100 
457.198	-0.0791	0.0181	0.5713	-19.2871	-13.7939	28.7476	-2.8070	2.3895	76.8549	50.7100 
457.230	-0.0708	-0.0322	0.5522	-19.4092	-8.9722	28.7476	-2.9828	2.3346	77.1295	50.7600 
457.230	-0.0464	-0.0962	0.5879	-19.4092	-5.0049	28.3813	-3.1970	2.3071	77.4371	50.5200 
457.261	-0.0195	-0.1255	0.6172	-19.4092	-1.0376	28.0762	-3.4277	2.3016	77.7502	50.7600 
457.261	0.0034	-0.1592	0.6738	-18.0054	1.3428	28.1982	-3.6584	2.3126	78.0743	50.5600 
457.261	0.0332	-0.1782	0.7241	-15.6860	1.1597	29.9683	-3.8672	2.3126	78.4094	50.5600 
457.307	0.0586	-0.2002	0.7715	-13.6108	-0.5493	32.2266	-4.0540	2.2906	78.7665	50.5200 
457.307	0.0771	-0.2256	0.8242	-11.2915	-2.5635	33.5083	-4.2188	2.2522	79.1400	50.7100 
457.307	0.0815	-0.2534	0.8916	-9.5825	-4.2114	32.3486	-4.3726	2.1918	79.5135	50.8000 
457.339	0.0723	-0.2803	0.9492	-7.7515	-7.5684	29.1748	-4.5099	2.1039	79.8651	50.4200 
457.339	0.0625	-0.2847	1.0034	-5.7983	-13.3667	23.1934	-4.6307	1.9666	80.1617	50.7100 
457.339	0.0669	-0.2817	1.0308	-3.7842	-22.0947	15.8691	-4.7296	1.7523	80.3925	50.5600 
457.339	0.1235	-0.3052	1.0444	-0.5493	-30.3345	7.8735	-4.8010	1.4227	80.5518	50.9000 
457.339	0.1890	-0.2817	1.0347	1.8311	-42.2974	0.9155	-4.8505	0.9723	80.6396	50.7600 
457.386	0.2729	-0.2700	0.9370	2.5635	-53.8940	-2.9907	-4.8834	0.3680	80.6946	50.7100 
457.386	0.3179	-0.2773	0.7739	0.9155	-55.1147	-5.0659	-4.9438	-0.3076	80.7330	50.7100 
457.386	0.2988	-0.2676	0.6313	-0.4272	-44.3726	-7.8125	-5.0317	-0.9283	80.7495	50.7100 
457.386	0.2373	-0.2529	0.5562	-1.6479	-21.0571	-12.8784	-5.1471	-1.3513	80.7111	50.5600 
457.417	0.1479	-0.2344	0.6152	-1.8921	12.2070	-18.5547	-5.2515	-1.4227	80.5902	50.5600 
457.417	0.0698	-0.2300	0.8325	-1.5259	42.1143	-19.9585	-5.3284	-1.1261	80.4034	50.8000 
457.417	0.0498	-0.2505	1.1587	-2.1973	58.3496	-16.5405	-5.3888	-0.6042	80.2057	50.7600 
457.417	0.0527	-0.2964	1.5132	-3.8452	53.9551	-10.5591	-5.4602	-0.0659	80.0519	50.5600 
457.417	0.0439	-0.3071	1.7803	-7.0190	32.8369	-3.2959	-5.5481	0.3021	79.9860	50.5600 
457.448	0.0405	-0.2588	1.9180	-11.0474	-1.6479	3.7842	-5.6635	0.3680	80.0024	50.7100 
457.448	0.0879	-0.1763	1.8462	-13.9160	-35.4004	8.7280	-5.8008	0.0879	80.1068	50.6100 
457.448	0.1802	-0.1113	1.6650	-14.3433	-60.7910	9.7046	-5.9326	-0.4724	80.2551	50.6100 
457.480	0.2212	0.0732	1.3608	-11.8408	-75.3784	8.5449	-6.0205	-1.2360	80.3925	50.5600 
457.480	0.1782	0.2334	1.0176	-11.8408	-66.2231	13.9771	-6.0480	-1.9775	80.5243	50.7100 
457.526	0.0508	0.1387	0.8477	-18.7378	-32.0435	26.7334	-6.1139	-2.4005	80.7330	50.7100 
457.542	-0.1221	-0.1362	0.8999	-28.2593	12.4512	27.8320	-6.3776	-2.3071	80.9967	50.6100 
457.573	-0.3530	-0.3447	1.0947	-36.9263	44.3115	23.4375	-6.7950	-1.8073	81.2494	50.6100 
457.573	-0.6519	-0.3442	1.2305	-35.1563	52.5513	16.3574	-7.2235	-1.1206	81.4142	50.7100 
457.573	-0.8423	-0.2588	1.2646	-26.7944	35.5225	12.0850	-7.5366	-0.5054	81.4746	50.6100 
457.573	-0.8525	-0.1738	1.2231	-17.2119	8.5449	11.4136	-7.7124	-0.1318	81.4801	50.5600 
457.573	-0.6919	-0.0288	1.1387	-7.2021	-16.1133	12.7563	-7.7454	-0.0385	81.4856	50.5600 
457.573	-0.4028	0.0986	1.0420	-0.0610	-25.7568	16.4795	-7.6685	-0.1318	81.5240	50.5600 
457.605	-0.1182	0.1455	0.9326	2.4414	-18.5547	20.3857	-7.5421	-0.2692	81.6284	50.7100 
457.605	0.0269	0.1577	0.9390	2.0752	-4.8218	26.1841	-7.4268	-0.3296	81.7987	50.7100 
457.605	0.0688	0.1841	1.0029	0.3052	9.8267	35.6445	-7.3169	-0.2582	82.0404	50.7600 
457.605	0.0645	0.1626	1.1270	-0.5493	21.4844	44.1895	-7.2235	-0.0494	82.3535	50.5600 
457.605	-0.0200	0.0854	1.2593	2.3804	28.0151	50.9644	-7.1411	0.2637	82.7435	50.7100 
457.636	-0.1387	0.0054	1.4004	8.9722	23.8647	52.2461	-7.0093	0.5988	83.1610	50.7100 
457.636	-0.2358	-0.0889	1.4634	16.8457	10.9863	49.8657	-6.8225	0.8459	83.5950	50.8000 
457.651	-0.2773	-0.1450	1.4404	24.1089	-1.7700	43.7622	-6.5808	0.9723	84.0015	50.5600 
457.667	-0.2388	-0.1616	1.3794	28.9307	-15.5640	37.4756	-6.2897	0.9503	84.3640	50.4200 
457.667	-0.1528	-0.1821	1.2563	32.4097	-26.6724	30.3955	-5.9766	0.7855	84.6826	50.7100 
457.682	-0.0732	-0.2134	1.1055	33.5693	-32.5317	24.7803	-5.6689	0.5273	84.9683	50.5200 
457.682	-0.0176	-0.2295	0.9053	32.8979	-33.9966	21.1182	-5.3888	0.2142	85.2319	50.6100 
457.682	0.0288	-0.2246	0.7637	31.3721	-28.6865	16.8457	-5.1361	-0.0769	85.4572	50.6100 
457.729	0.0562	-0.2134	0.6567	28.5034	-21.1792	14.3433	-4.9164	-0.3186	85.6549	50.7100 
457.729	0.0664	-0.2075	0.5977	26.7944	-11.3525	11.1694	-4.7296	-0.4834	85.8197	50.5200 
457.760	0.0591	-0.2236	0.5845	26.0010	-0.7935	6.5308	-4.5648	-0.5438	85.9406	50.5600 
457.760	0.0259	-0.1982	0.6064	25.5127	6.1646	0.1221	-4.3890	-0.5164	85.9900	50.7100 
457.760	-0.0195	-0.1973	0.6323	25.0244	10.5591	-8.4229	-4.2188	-0.4175	85.9625	50.7100 
457.760	-0.0488	-0.1406	0.6567	26.0010	12.6343	-14.8926	-4.0155	-0.2856	85.8307	50.7100 
457.760	-0.0640	-0.0679	0.6885	27.5269	14.7095	-20.3247	-3.7628	-0.1263	85.6000	50.9000 
457.792	-0.0620	0.0181	0.7256	27.8320	13.6719	-22.9492	-3.4607	0.0275	85.3033	50.3700 
457.792	-0.0518	0.0928	0.7437	25.9399	10.9253	-23.3765	-3.1421	0.1428	84.9683	50.6100 
457.792	-0.0410	0.1367	0.7676	23.6206	8.0566	-21.3623	-2.8235	0.2252	84.6332	50.4200 
457.807	-0.0161	0.1494	0.7754	19.8975	4.0894	-19.1650	-2.5323	0.2582	84.3311	50.5200 
457.823	0.0000	0.1323	0.7729	16.3574	0.3052	-16.6626	-2.2906	0.2527	84.0619	50.6100 
457.823	0.0171	0.1143	0.7568	11.8408	-1.8921	-13.6719	-2.0984	0.2142	83.8257	50.6100 
457.823	0.0122	0.0703	0.7407	8.1177	-1.4648	-9.7046	-1.9556	0.1813	83.6444	50.5600 
457.838	0.0107	0.0205	0.7549	4.5166	1.5259	-6.7139	-1.8787	0.1758	83.5181	50.7100 
457.854	0.0332	-0.0249	0.8115	1.7090	3.9673	-5.3711	-1.8512	0.1978	83.4192	50.7100 
457.854	0.0591	-0.0483	0.8721	-0.1221	3.7842	-6.2256	-1.8567	0.2142	83.3368	50.6100 
457.870	0.0664	-0.0532	0.9341	-1.5869	1.6479	-8.9111	-1.8787	0.2087	83.2324	50.5600 
457.885	0.0762	-0.0474	0.9819	-1.5259	-2.6245	-13.7329	-1.9006	0.1648	83.0841	50.6100 
457.932	0.1035	-0.0366	1.0073	-1.2207	-8.7280	-19.8975	-1.9171	0.0549	82.8809	50.5600 
457.932	0.1348	-0.0308	0.9805	-1.1597	-12.0239	-24.9634	-1.9281	-0.1099	82.6227	50.6100 
457.932	0.1660	-0.0234	0.9551	-0.4883	-10.4980	-28.8086	-1.9336	-0.2856	82.3260	50.5200 
457.964	0.1699	-0.0171	0.9556	-0.3662	-4.3335	-30.2734	-1.9336	-0.4120	82.0074	50.7100 
457.964	0.1387	-0.0020	0.9966	-0.2441	3.1128	-28.8086	-1.9281	-0.4559	81.6888	50.6100 
457.964	0.0894	0.0000	1.0645	0.0000	8.9111	-24.7803	-1.9171	-0.4175	81.4032	50.8000 
457.964	0.0234	0.0181	1.1323	1.8311	12.7563	-21.9727	-1.8896	-0.3186	81.1395	50.6100 
457.979	0.0063	0.0815	1.2197	5.4932	15.1978	-19.2871	-1.8127	-0.1813	80.8923	50.3700 
457.979	0.0552	0.1294	1.3086	9.2163	16.7847	-15.1978	-1.6919	-0.0330	80.6726	50.5600 
457.995	0.1538	0.1689	1.4517	10.7422	11.0474	-11.5356	-1.5436	0.0549	80.4968	50.6100 
457.995	0.2686	0.1875	1.5625	10.4980	-5.1880	-8.1177	-1.3898	-0.0110	80.3650	50.5200 
458.027	0.3550	0.1489	1.5552	9.0942	-26.3062	-7.2021	-1.2524	-0.2966	80.2606	50.5200 
458.027	0.3823	0.0635	1.4404	6.0425	-44.6777	-9.3994	-1.1646	-0.7855	80.1617	50.5600 
458.027	0.2925	-0.0356	1.1909	2.3193	-50.0488	-13.6719	-1.1261	-1.3678	80.0354	50.5600 
458.027	0.1064	-0.1089	0.9487	1.5869	-26.4893	-17.6392	-1.1316	-1.7578	79.8816	50.7100 
458.027	-0.1504	-0.0825	0.8945	6.3477	19.1650	-20.1416	-1.1096	-1.6479	79.6838	50.5600 
458.058	-0.4253	0.0073	1.1030	19.4092	57.0679	-14.0381	-0.9393	-1.0437	79.4586	50.5600 
458.089	-0.6294	0.0410	1.4033	34.3628	66.9556	-3.7842	-0.5988	-0.2307	79.2938	50.5200 
458.089	-0.7651	0.0972	1.6113	41.2598	36.1328	3.1128	-0.1538	0.3625	79.1895	50.3700 
458.135	-0.8120	0.0713	1.5210	38.7573	-16.2354	9.5825	0.2911	0.4834	79.1400	50.7100 
458.135	-0.6904	-0.0020	1.2051	28.7476	-53.2227	10.1929	0.6372	0.1978	79.1180	50.5600 
458.151	-0.4565	-0.1206	0.8486	16.7847	-62.1948	7.6904	0.8130	-0.2417	79.1455	50.6100 
458.151	-0.2056	-0.2412	0.5747	6.9580	-45.2881	2.0752	0.7745	-0.6372	79.2773	50.7100 
458.183	-0.0220	-0.3120	0.4995	0.8545	-15.5640	-5.8594	0.6097	-0.8679	79.3872	50.5200 
458.183	0.0474	-0.2954	0.5864	-2.9297	12.8174	-14.5264	0.4230	-0.8514	79.3872	50.7100 
458.183	-0.0049	-0.2256	0.7827	-3.0518	32.3486	-20.8740	0.2747	-0.5823	79.2719	50.2800 
458.183	-0.0874	-0.1338	1.0356	-1.3428	40.7715	-19.7144	0.2032	-0.1648	79.0961	50.6100 
458.183	-0.1621	-0.0820	1.2402	-2.0752	39.1235	-13.7939	0.1648	0.2692	78.9368	50.3700 
458.183	-0.2227	-0.0669	1.3691	-5.2490	30.7617	-8.0566	0.1044	0.6482	78.8269	50.6100 
458.214	-0.2583	-0.0498	1.4375	-10.2539	18.9209	-4.0894	0.0000	0.9229	78.7555	50.5200 
458.214	-0.2798	-0.0239	1.4424	-15.6250	8.0566	-2.7466	-0.1428	1.0876	78.6896	50.5600 
458.214	-0.2749	0.0083	1.4092	-19.7144	-1.1597	-3.2349	-0.3241	1.1591	78.6237	50.5600 
458.229	-0.2666	0.0591	1.3335	-22.6440	-10.6812	-3.0518	-0.5219	1.1316	78.5358	50.7100 
458.229	-0.2236	0.1011	1.2168	-22.9492	-18.6157	0.3052	-0.7196	1.0162	78.4698	50.5200 
458.229	-0.1709	0.0996	1.1138	-18.6157	-20.3857	4.9438	-0.8734	0.8679	78.4479	50.3700 
458.245	-0.1211	0.0845	0.9995	-14.8315	-24.7192	12.6953	-0.9888	0.6647	78.4973	50.3700 
458.245	-0.0840	0.0435	0.8882	-12.0239	-24.5972	19.0430	-1.0822	0.4449	78.6292	50.7100 
458.260	-0.0566	0.0039	0.8003	-10.8032	-22.8271	23.4985	-1.1810	0.2417	78.8269	50.4200 
458.292	-0.0430	-0.0234	0.7153	-10.4980	-19.8975	26.3672	-1.2799	0.0604	79.0686	50.5600 
458.292	-0.0254	-0.0537	0.6494	-10.9863	-15.1978	28.1982	-1.4063	-0.0769	79.3488	50.5200 
458.307	-0.0166	-0.0728	0.6055	-13.0615	-9.5215	29.0527	-1.5601	-0.1648	79.6454	50.5200 
458.307	-0.0107	-0.0889	0.5972	-15.3198	-2.3804	30.1514	-1.7468	-0.1923	79.9640	50.3700 
458.307	-0.0127	-0.1060	0.6289	-17.3340	1.9531	30.9448	-1.9611	-0.1703	80.2881	50.3700 
458.339	-0.0200	-0.1445	0.6655	-18.4937	4.0283	30.0903	-2.2028	-0.1154	80.6287	50.3700 
458.370	-0.0244	-0.1416	0.6924	-18.6157	3.3569	26.5503	-2.4500	-0.0549	80.9363	50.3700 
458.370	-0.0210	-0.1533	0.7158	-17.5781	0.7935	23.9258	-2.6862	-0.0220	81.2164	50.3700 
458.370	-0.0288	-0.1494	0.7114	-15.4419	-1.0376	20.2637	-2.9004	-0.0110	81.4581	50.5200 
458.370	-0.0190	-0.1475	0.7061	-13.0615	-1.4648	15.6250	-3.0927	-0.0110	81.6559	50.4200 
458.370	0.0054	-0.1221	0.7134	-10.6201	0.6104	12.4512	-3.2465	0.0000	81.8042	50.6100 
458.370	0.0400	-0.1152	0.7446	-8.1787	1.0376	11.8408	-3.3673	0.0000	81.9360	50.5200 
458.402	0.0698	-0.0986	0.7866	-5.6152	0.0610	12.3901	-3.4552	-0.0165	82.0569	50.5200 
458.402	0.0918	-0.1006	0.8208	-3.8452	-0.8545	14.5874	-3.5156	-0.0494	82.2052	50.5600 
458.433	0.1245	-0.1001	0.8823	-0.6714	-3.3569	17.4561	-3.5486	-0.1099	82.3700	50.3700 
458.433	0.1431	-0.1011	0.9414	2.1362	-10.8032	20.9961	-3.5541	-0.2362	82.5732	50.5200 
458.433	0.1455	-0.1118	0.9326	3.4180	-19.4702	24.1089	-3.5376	-0.4449	82.8149	50.5600 
458.464	0.1284	-0.1147	0.8740	4.1504	-23.4985	27.1606	-3.5211	-0.7086	83.0951	50.5200 
458.464	0.1172	-0.1113	0.7783	4.3945	-19.7754	29.1748	-3.5101	-0.9448	83.3917	50.5600 
458.464	0.1113	-0.1021	0.7510	3.3569	-8.3618	30.0293	-3.5046	-1.0876	83.6938	50.5600 
458.495	0.0864	-0.0908	0.7783	2.6245	6.6528	31.9824	-3.5046	-1.0712	84.0015	50.4200 
458.495	0.0615	-0.1196	0.8770	1.3428	17.3340	32.9590	-3.5156	-0.9229	84.3091	50.5600 
458.495	0.0410	-0.2026	1.0220	-1.2207	22.9492	31.2500	-3.5651	-0.6976	84.6222	50.5600 
458.542	0.0396	-0.3364	1.1982	-4.0283	19.2261	25.0244	-3.6639	-0.4834	84.8969	50.3700 
458.542	0.0972	-0.4521	1.3604	-6.5918	10.1929	14.0381	-3.8123	-0.3680	85.1001	50.4200 
458.542	0.1543	-0.4946	1.4531	-10.8032	-4.8218	2.1973	-3.9935	-0.4120	85.1935	50.7100 
458.542	0.2188	-0.4707	1.4556	-14.7095	-19.8364	-5.9814	-4.2133	-0.6262	85.2045	50.4200 
458.574	0.2671	-0.3467	1.4102	-16.6626	-32.1655	-9.7656	-4.4385	-0.9833	85.1550	50.5200 
458.574	0.2607	-0.1519	1.3140	-15.8691	-36.5601	-6.5308	-4.6252	-1.4117	85.0946	50.2300 
458.574	0.1948	0.0142	1.2158	-17.3340	-28.6865	0.1221	-4.7736	-1.7688	85.0616	50.3700 
458.574	0.0488	0.0620	1.1855	-24.2920	-10.0098	8.1787	-4.9548	-1.9336	85.0726	50.7100 
458.605	-0.1553	0.0322	1.2617	-34.3628	10.9863	12.2070	-5.2295	-1.8292	85.1001	50.7100 
458.605	-0.3413	0.0171	1.3457	-41.9922	18.1885	13.7939	-5.5920	-1.5656	85.1166	50.2800 
458.605	-0.5220	0.0098	1.2969	-40.8325	15.9912	15.7471	-5.9546	-1.2634	85.1276	50.5600 
458.636	-0.6616	0.0767	1.2266	-34.6680	5.6152	20.2637	-6.2238	-1.0107	85.1111	50.7100 
458.636	-0.6567	0.0947	1.1069	-26.5503	-10.8032	22.2168	-6.3940	-0.9009	85.1001	50.5200 
458.636	-0.5391	0.1274	0.9570	-20.8130	-14.6484	23.4375	-6.4819	-0.8789	85.0946	50.5200 
458.667	-0.3818	0.0732	0.8579	-19.3481	-3.4180	20.6299	-6.5643	-0.7965	85.1166	50.5200 
458.667	-0.2520	0.0513	0.8623	-20.3857	16.2964	18.1274	-6.6852	-0.5603	85.1385	50.5600 
458.667	-0.1533	0.0576	1.0034	-18.0664	34.3018	18.7378	-6.8060	-0.1868	85.1770	50.5600 
458.667	-0.1040	0.0669	1.2017	-12.9395	41.9922	27.6489	-6.8829	0.2692	85.2869	50.6100 
458.714	-0.1138	0.0400	1.3584	-6.3477	34.5459	36.7432	-6.9049	0.6976	85.4956	50.2800 
458.714	-0.1509	-0.0308	1.4272	1.2207	16.2964	42.4194	-6.8665	0.9833	85.8032	50.5200 
458.714	-0.2085	-0.0889	1.3896	9.1553	-1.5869	41.6260	-6.7621	1.0986	86.1548	50.5600 
458.714	-0.2080	-0.1172	1.2974	16.1133	-11.9019	35.8887	-6.5918	1.0876	86.4844	50.5600 
458.714	-0.1675	-0.1157	1.2109	21.2402	-13.4888	30.5176	-6.3776	1.0327	86.7645	50.5200 
458.745	-0.1055	-0.1025	1.1436	26.7944	-10.0098	29.2969	-6.1084	0.9833	87.0172	50.3700 
458.745	-0.0664	-0.0776	1.1143	27.2217	-9.8877	29.2358	-5.8173	0.9338	87.2644	50.2800 
458.745	-0.0542	-0.0938	1.0605	26.1841	-13.0615	28.9917	-5.5426	0.8569	87.5171	50.3700 
458.776	-0.0449	-0.1187	1.0078	24.5972	-15.3809	26.5503	-5.2954	0.7471	87.7588	50.4200 
458.776	-0.0366	-0.1304	0.9448	23.1934	-16.9067	24.7192	-5.0702	0.6097	87.9895	50.4200 
458.792	-0.0220	-0.1440	0.8916	21.3013	-16.9067	20.9961	-4.8779	0.4724	88.1927	50.5200 
458.792	-0.0093	-0.1440	0.8374	20.0806	-13.8550	16.7847	-4.7021	0.3406	88.3630	50.6100 
458.792	-0.0103	-0.1504	0.8115	18.9819	-8.9111	12.7563	-4.5374	0.2582	88.4949	50.6100 
458.807	-0.0034	-0.1440	0.8145	18.9819	-4.5166	7.0801	-4.3835	0.2087	88.5663	50.5600 
458.807	-0.0107	-0.1152	0.8003	17.8833	-5.3711	2.0142	-4.2297	0.1648	88.5718	50.5200 
458.823	-0.0093	-0.1104	0.7910	17.9443	-4.3335	-3.6011	-4.0704	0.1208	88.5278	50.5200 
458.823	-0.0161	-0.0537	0.7793	17.8223	-2.0752	-7.8735	-3.9001	0.0934	88.4070	50.3700 
458.854	-0.0190	0.0151	0.7637	18.3105	0.1831	-11.2915	-3.6914	0.0879	88.2257	50.5600 
458.854	-0.0229	0.0757	0.7568	18.4326	3.4790	-13.1226	-3.4607	0.1044	87.9895	50.5600 
458.854	-0.0151	0.1006	0.7725	17.0898	7.8125	-13.6719	-3.2245	0.1648	87.7368	50.5200 
458.870	-0.0024	0.0933	0.7944	16.2354	10.8032	-13.6108	-2.9993	0.2472	87.4841	50.5600 
458.885	0.0049	0.0825	0.8281	14.6484	12.1460	-12.2681	-2.7960	0.3461	87.2479	50.5600 
458.948	0.0186	0.0654	0.8706	12.8174	11.4746	-10.3149	-2.6202	0.4449	87.0392	50.4200 
458.964	0.0283	0.0386	0.9072	11.0474	8.0566	-7.7515	-2.4774	0.5164	86.8744	50.4200 
458.964	0.0244	0.0181	0.9238	8.6060	4.0894	-5.7373	-2.3621	0.5548	86.7426	50.6100 
458.995	0.0210	-0.0190	0.9268	6.5308	1.7090	-4.1504	-2.2852	0.5603	86.6382	50.5600 
458.995	0.0254	-0.0581	0.9463	4.8218	0.0000	-4.8218	-2.2357	0.5493	86.5448	50.3700 
458.995	0.0537	-0.0908	0.9839	3.9063	-1.5869	-8.7891	-2.2137	0.5219	86.4404	50.5200 
458.995	0.0674	-0.1099	1.0210	3.4790	-6.0425	-14.6484	-2.2028	0.4449	86.2921	50.4200 
458.995	0.0620	-0.1021	1.0210	4.0283	-11.3525	-22.5220	-2.1863	0.3131	86.0724	50.2300 
458.995	0.0313	-0.0869	1.0000	4.3945	-12.5122	-31.0669	-2.1643	0.1648	85.7593	50.3700 
458.995	0.0137	-0.0493	0.9971	4.0283	-9.3994	-36.4990	-2.1313	0.0385	85.3748	50.3700 
458.995	0.0044	-0.0073	1.0327	4.3335	-4.3945	-37.1094	-2.0819	-0.0275	84.9628	50.5200 
459.042	-0.0176	0.0498	1.0840	5.3101	-0.7324	-34.4238	-2.0105	-0.0549	84.5453	50.3700 
459.042	-0.0566	0.1338	1.1221	8.4229	2.5635	-28.8086	-1.8842	-0.0385	84.1553	50.5600 
459.042	-0.0732	0.1953	1.1865	10.7422	3.6011	-21.7896	-1.7139	0.0000	83.8092	50.5200 
459.042	-0.0830	0.2402	1.2427	11.7798	3.1128	-13.9771	-1.5216	0.0330	83.5345	50.4200 
459.057	-0.1138	0.2339	1.2964	11.9629	1.4038	-6.3477	-1.3293	0.0604	83.3423	50.5600 
459.073	-0.1992	0.2021	1.3140	11.8408	4.3335	-2.2583	-1.1426	0.1263	83.1940	50.3700 
459.089	-0.2412	0.1660	1.4131	14.0991	7.0801	-2.5635	-0.9503	0.2472	83.0511	50.3700 
459.089	-0.2480	0.1074	1.5054	17.3950	-5.0659	-2.3804	-0.7416	0.2856	82.9358	50.5200 
459.104	-0.2554	0.0161	1.3901	19.8975	-32.7759	-4.5166	-0.5328	0.0879	82.8314	50.5600 
459.104	-0.2651	-0.1323	1.0801	19.8975	-51.2695	-9.8877	-0.3516	-0.3076	82.7271	50.5200 
459.151	-0.2700	-0.2881	0.7559	18.5547	-51.4526	-20.0806	-0.2747	-0.7361	82.6556	50.4200 
459.151	-0.2285	-0.4312	0.5049	18.8599	-36.4380	-31.9214	-0.3131	-1.1151	82.6227	50.6100 
459.183	-0.1572	-0.4922	0.3696	21.7285	-7.5073	-42.4194	-0.3955	-1.3074	82.5238	50.5200 
459.198	-0.0737	-0.4702	0.4287	24.4751	22.6440	-48.0957	-0.4340	-1.2195	82.3096	50.4200 
459.198	-0.0288	-0.4341	0.6313	24.0479	46.2036	-48.8892	-0.4010	-0.8569	82.0129	50.4200 
459.198	-0.0454	-0.3916	0.9053	20.9961	57.1899	-45.8374	-0.3351	-0.3241	81.6779	50.5600 
459.198	-0.0679	-0.3335	1.1753	17.2729	57.0679	-40.7104	-0.2582	0.2527	81.3373	50.3700 
459.198	-0.1226	-0.1934	1.3667	13.0005	50.4761	-38.3911	-0.1813	0.7910	80.9857	50.3700 
459.198	-0.2017	0.0044	1.4346	7.9346	38.8184	-37.9028	-0.1044	1.2524	80.5792	50.5600 
459.214	-0.2358	0.1309	1.4399	2.1362	20.9351	-37.9639	-0.0494	1.5491	80.1343	50.5600 
459.229	-0.2256	0.2275	1.3496	-3.5400	3.1738	-40.1611	-0.0275	1.6589	79.6509	50.4200 
459.229	-0.1812	0.2271	1.2192	-8.1177	-8.6060	-40.1001	-0.0385	1.6260	79.1510	50.5200 
459.229	-0.1064	0.2373	1.1118	-11.9019	-15.8081	-37.1704	-0.0879	1.4996	78.6731	50.3700 
459.245	-0.0469	0.2324	1.0078	-15.2588	-19.5923	-28.8086	-0.1593	1.3129	78.2776	50.5600 
459.260	-0.0190	0.1899	0.8906	-17.7612	-19.2871	-18.1885	-0.2582	1.1096	77.9919	50.5200 
459.260	-0.0103	0.1284	0.8042	-19.8364	-17.2119	-10.1929	-0.4010	0.9229	77.8162	50.3700 
459.260	-0.0181	0.0620	0.7339	-21.9116	-13.8550	-4.9438	-0.5768	0.7745	77.7118	50.2300 
459.292	-0.0239	0.0059	0.6792	-22.3389	-8.8501	-1.2817	-0.7800	0.6757	77.6733	50.4200 
459.323	-0.0249	-0.0630	0.6494	-21.2402	-4.7607	-0.3662	-1.0162	0.6317	77.6788	50.3700 
459.323	0.0054	-0.1309	0.6162	-19.8975	-0.1831	-0.7935	-1.2799	0.6097	77.7228	50.5600 
459.323	0.0444	-0.1528	0.5938	-17.7002	6.5308	-1.8921	-1.5381	0.6262	77.7667	50.3700 
459.354	0.0703	-0.1484	0.5986	-14.3433	14.7095	-0.4883	-1.7578	0.7031	77.8217	50.7100 
459.354	0.0791	-0.1323	0.6431	-10.8643	21.8506	2.5635	-1.9336	0.8569	77.8821	50.4200 
459.354	0.0703	-0.1167	0.6987	-7.3242	24.9634	6.4087	-2.0599	1.0547	77.9700	50.2300 
459.386	0.0620	-0.1045	0.7656	-4.6997	23.4985	9.2773	-2.1478	1.2634	78.0798	50.5200 
459.386	0.0586	-0.0952	0.8174	-3.2349	17.7002	11.5356	-2.2083	1.4227	78.2062	50.5200 
459.386	0.0361	-0.1006	0.8467	-2.6855	9.9487	11.3525	-2.2577	1.5216	78.3380	50.2800 
459.386	0.0405	-0.0879	0.8604	-1.0376	3.1738	8.7891	-2.2961	1.5491	78.4479	50.4200 
459.386	0.0576	-0.0693	0.8662	1.8311	-1.2207	7.4463	-2.2961	1.5161	78.5358	50.4200 
459.401	0.0615	-0.0566	0.8833	5.9814	-5.6152	8.3008	-2.2577	1.4447	78.6182	50.3700 
459.433	0.0640	-0.0332	0.8877	8.6060	-12.0850	9.2163	-2.1808	1.3129	78.7115	50.6100 
459.433	0.0791	-0.0210	0.8804	10.3760	-19.1650	13.9771	-2.0709	1.1096	78.8324	50.3700 
459.433	0.0850	-0.0308	0.8521	11.4746	-26.1841	19.1650	-1.9556	0.8295	79.0137	50.2800 
459.464	0.1001	-0.0366	0.8174	11.1084	-30.5176	23.0713	-1.8402	0.4944	79.2444	50.2800 
459.464	0.1411	-0.0645	0.7935	9.5825	-32.4707	24.5972	-1.7523	0.1263	79.5026	50.3700 
459.496	0.1709	-0.1113	0.8145	7.1411	-31.5552	23.2544	-1.7029	-0.2472	79.7662	50.3700 
459.496	0.1841	-0.1592	0.8237	5.3711	-31.7383	20.5688	-1.6919	-0.6317	80.0189	50.5200 
459.496	0.1621	-0.1968	0.8447	2.9297	-30.8228	16.0522	-1.7194	-1.0052	80.2386	50.5200 
459.526	0.0986	-0.2344	0.8618	-1.2207	-30.2734	12.2681	-1.7963	-1.3458	80.4309	50.4200 
459.526	0.0259	-0.2739	0.8589	-5.4321	-29.3579	9.5215	-1.9336	-1.6534	80.6122	50.2800 
459.526	-0.0542	-0.2490	0.8159	-8.6060	-28.2593	8.9111	-2.1094	-1.9226	80.7825	50.2800 
459.526	-0.1294	-0.2070	0.7471	-10.6812	-26.3062	12.6343	-2.3016	-2.1313	80.9692	50.3700 
459.526	-0.2065	-0.1367	0.6670	-11.0474	-23.8647	19.2261	-2.4884	-2.2687	81.2000	50.4200 
459.557	-0.2593	-0.0522	0.5635	-10.7422	-22.7661	28.1982	-2.6202	-2.3401	81.4307	50.5200 
459.573	-0.2905	0.0522	0.4668	-10.1318	-23.6816	36.3770	-2.6587	-2.3785	81.6064	50.3700 
459.589	-0.2866	0.2295	0.3574	-6.1035	-21.9727	47.7905	-2.5104	-2.4664	81.7383	50.2800 
459.589	-0.1401	0.4966	0.2739	-2.3193	-12.0239	64.6362	-2.2137	-2.6038	82.0624	50.4200 
459.621	0.0044	0.4072	0.2822	-17.3340	14.5874	80.7495	-2.0325	-2.5983	82.6337	50.5200 
459.621	-0.0669	0.1167	0.5698	-37.1704	42.2363	74.7070	-2.2412	-2.2028	83.2379	50.3700 
459.621	-0.0938	-0.1313	0.9404	-46.8140	62.1338	47.2412	-2.7191	-1.5546	83.7268	50.4200 
459.621	-0.1851	-0.1802	1.3525	-49.0112	80.4443	19.4092	-3.2410	-0.7361	83.9246	50.4200 
459.621	-0.2700	-0.3208	1.8955	-42.4194	85.2051	11.9019	-3.7244	0.1758	84.0015	50.5600 
459.621	-0.2549	-0.4609	2.3013	-14.0381	82.5806	4.4556	-3.9880	1.0492	84.0179	50.5200 
459.652	-0.3755	-0.4531	2.4453	18.8599	63.9648	-2.8076	-3.9221	1.7798	83.9685	50.2300 
459.667	-0.4360	-0.1460	2.4355	29.8462	-10.9863	5.1880	-3.6420	1.9281	83.9355	50.2300 
459.667	-0.3286	-0.0527	2.0903	26.0620	-85.2051	18.6768	-3.3453	1.2909	84.0729	50.2800 
459.683	0.0254	0.1611	1.5400	21.2402	-105.8960	29.7241	-3.0707	0.2637	84.3146	50.5200 
459.714	0.3218	0.2515	1.2295	11.4746	-76.5991	49.4995	-2.8564	-0.6372	84.6991	50.5200 
459.714	0.4580	0.0776	1.1333	-7.8125	-30.2124	57.9224	-2.8564	-1.1591	85.2319	50.5600 
459.714	0.3931	-0.0059	1.2769	-22.7661	14.8926	45.3491	-3.0542	-1.1920	85.6769	50.5600 
459.761	0.2036	-0.1216	1.5234	-19.4092	33.1421	26.2451	-3.2794	-0.9229	85.9296	50.3700 
459.761	0.0288	-0.2275	1.6504	-2.5635	16.5405	9.4604	-3.3673	-0.7031	86.0229	50.4200 
459.776	-0.0298	-0.2437	1.5044	10.8643	-16.2354	-5.0049	-3.3179	-0.7745	85.9955	50.5200 
459.776	-0.0010	-0.1851	1.1836	14.1602	-38.5742	-14.9536	-3.2135	-1.1151	85.8746	50.5200 
459.776	0.0718	-0.1509	0.8745	14.0991	-36.7432	-18.4937	-3.1036	-1.5161	85.7043	50.5200 
459.808	0.1504	-0.1226	0.7041	11.8408	-22.5830	-17.8223	-3.0157	-1.8402	85.5286	50.3700 
459.808	0.2148	-0.0869	0.6479	8.7280	-7.7515	-14.3433	-2.9498	-2.0490	85.3693	50.3700 
459.808	0.2734	-0.0474	0.6729	4.2114	3.7231	-7.9346	-2.9059	-2.1588	85.2484	50.5200 
459.808	0.2700	-0.0410	0.7422	-0.4883	8.6670	-2.7466	-2.9059	-2.1918	85.1770	50.4200 
459.808	0.1987	-0.1021	0.8511	-3.2349	3.2349	-3.2959	-2.9443	-2.2137	85.1276	50.2800 
459.808	0.1143	-0.1641	0.8901	-5.0049	-7.7515	-12.5122	-3.0267	-2.3071	85.0287	50.5600 
459.855	0.0620	-0.2095	0.8936	-4.7607	-19.5313	-27.8931	-3.1256	-2.4994	84.8199	50.4200 
459.855	0.0547	-0.1655	0.8018	-4.1504	-28.8086	-44.0063	-3.2025	-2.7960	84.4519	50.3700 
459.855	0.0679	-0.1025	0.6611	-3.7231	-28.6865	-54.3823	-3.2520	-3.1311	83.9520	50.5200 
459.886	0.1060	-0.1025	0.5771	-5.5542	-21.9116	-64.0259	-3.3014	-3.4387	83.3588	50.4200 
459.901	0.1226	-0.0635	0.5537	-9.3994	-14.9536	-72.5098	-3.3673	-3.6969	82.6666	50.2300 
459.901	0.0869	0.0107	0.5322	-13.7939	-12.0239	-75.0732	-3.4277	-3.9056	81.9031	50.4200 
459.917	-0.0415	0.0928	0.4995	-14.8926	-10.8643	-71.0449	-3.4552	-4.0430	81.1011	50.4200 
459.917	-0.1836	0.1401	0.4517	-13.9771	-9.1553	-65.8569	-3.4058	-4.0869	80.2386	50.4200 
459.917	-0.2261	0.2070	0.4189	-10.9253	-7.6294	-61.8896	-3.2739	-4.1034	79.3488	50.3700 
459.917	-0.1992	0.2271	0.3848	-7.4463	-5.1270	-54.5044	-3.0762	-4.1034	78.5138	50.4200 
459.917	-0.1704	0.2017	0.3525	-1.8311	-2.6855	-48.2788	-2.8455	-4.0759	77.7557	50.2800 
459.964	-0.1079	0.1504	0.2915	3.3569	-3.7842	-44.7998	-2.5763	-4.0540	77.0691	50.2800 
459.964	-0.0244	-0.0264	0.1875	4.0894	0.3052	-39.1846	-2.4335	-4.0210	76.5857	50.4200 
459.996	-0.1597	-0.0840	0.1113	-0.4883	27.7710	-41.7480	-2.7081	-3.8287	76.6296	50.3700 
460.011	-0.3501	-0.1221	0.3730	-0.2441	55.4810	-42.9688	-2.9718	-3.2849	76.7120	50.3700 
460.011	-0.3916	-0.0830	0.7334	2.0752	65.9790	-40.4053	-2.9498	-2.4664	76.2177	50.2800 
460.011	-0.3384	0.0347	1.1479	3.5400	77.3926	-23.6816	-2.8784	-1.6095	75.8276	50.3700 
460.027	-0.2852	0.0605	1.6328	12.5732	77.3926	1.9531	-2.7356	-0.7581	75.6848	50.3700 
460.027	-0.1904	-0.1201	2.0918	17.5781	64.9414	21.9727	-2.5653	-0.0275	75.8221	50.4200 
460.027	-0.1792	-0.3374	2.4902	18.4326	39.9170	29.6021	-2.4060	0.4889	76.1133	50.2300 
460.027	-0.1904	-0.4146	2.4624	16.2354	-12.7563	27.8931	-2.2742	0.5328	76.4429	50.4200 
460.027	-0.0640	-0.4741	2.0483	15.5640	-54.8706	20.6299	-2.1753	0.0879	76.7450	50.5600 
460.058	0.1021	-0.6689	1.6162	14.1602	-51.8799	5.8594	-2.1313	-0.4889	76.9757	50.5200 
460.058	0.1733	-0.7539	1.4922	12.3291	-16.2354	-15.3198	-2.1423	-0.8075	77.0197	50.5200 
460.058	0.1660	-0.7246	1.7729	12.3901	15.8691	-36.8652	-2.1368	-0.7745	76.8219	50.2800 
460.089	0.0742	-0.4873	2.0435	16.3574	5.8594	-50.5371	-2.0544	-0.6976	76.4209	50.5200 
460.121	0.0273	-0.2261	1.8003	16.1743	-36.3159	-53.5889	-1.9171	-0.9778	75.9375	50.4200 
460.121	0.0254	-0.0811	1.2856	11.8408	-56.3965	-52.4292	-1.7908	-1.5216	75.4486	50.3700 
460.121	0.1045	0.0308	0.8623	7.6294	-49.8047	-49.8047	-1.6754	-2.0819	74.9542	50.2800 
460.121	0.2397	0.0532	0.6392	2.7466	-27.7710	-48.7671	-1.5820	-2.5214	74.4763	50.5200 
460.121	0.3306	0.0908	0.5669	-2.8076	0.0000	-47.1802	-1.5271	-2.7521	74.0039	50.2800 
460.167	0.3491	0.1064	0.6201	-6.9580	23.1323	-41.5649	-1.5051	-2.7411	73.5699	50.4200 
460.167	0.2661	0.1074	0.7090	-8.6670	36.7432	-32.7148	-1.5106	-2.5323	73.2074	50.3700 
460.167	0.1343	0.0908	0.7891	-9.0942	42.4805	-25.0854	-1.5381	-2.1863	72.9218	50.4200 
460.167	0.0225	0.0957	0.8774	-8.3618	43.8843	-15.9912	-1.5710	-1.7633	72.7075	50.2300 
460.214	-0.0215	0.0894	0.9653	-7.8125	41.0156	-6.0425	-1.6095	-1.3348	72.5867	50.3700 
460.214	-0.0078	0.0781	1.0610	-5.4321	33.5693	6.4087	-1.6315	-0.9668	72.5867	50.5200 
460.214	0.0347	0.0566	1.0928	-1.9531	22.1558	20.4468	-1.6315	-0.7141	72.7405	50.1800 
460.214	0.0757	0.0322	1.0737	2.0142	9.2773	34.9731	-1.6040	-0.5988	73.0481	50.2300 
460.245	0.0977	-0.0234	1.0049	5.0049	-1.0376	47.7295	-1.5601	-0.5988	73.5095	50.5600 
460.245	0.0918	-0.0889	0.9600	6.5918	-9.1553	56.0303	-1.5161	-0.6866	74.0753	50.4200 
460.245	0.0298	-0.1699	0.9067	5.3101	-18.6768	58.4106	-1.5106	-0.8514	74.7125	50.5200 
460.245	-0.0708	-0.2329	0.8076	2.6245	-26.4282	54.0771	-1.5710	-1.0712	75.3442	50.2800 
460.277	-0.1597	-0.2422	0.6763	0.6714	-28.9307	45.9595	-1.6809	-1.2854	75.9375	50.5200 
460.277	-0.1748	-0.2490	0.5498	0.2441	-25.3906	38.5132	-1.8292	-1.4667	76.4868	50.1800 
460.308	-0.1777	-0.2461	0.4556	1.2817	-19.3481	32.5317	-2.0050	-1.5875	77.0142	50.5600 
460.308	-0.1851	-0.2002	0.3813	3.1738	-15.3809	29.3579	-2.1698	-1.6425	77.5195	50.4200 
460.308	-0.1821	-0.1353	0.3228	5.1880	-15.6250	30.0903	-2.2961	-1.6479	77.9974	50.5200 
460.308	-0.1401	-0.0508	0.2388	6.8970	-18.6157	35.9497	-2.3181	-1.6370	78.3929	50.2800 
460.308	-0.0537	0.0371	0.0923	9.2163	-19.7754	43.2739	-2.1259	-1.6644	78.6292	50.4200 
460.339	0.0532	0.1338	-0.0400	13.0005	-15.8691	51.4526	-1.5491	-1.9940	79.0411	50.4200 
460.339	0.1421	0.5127	-0.1157	23.3154	-10.1929	66.2231	-0.8734	-2.3071	79.5905	50.2800 
460.386	0.1650	0.4136	-0.0913	16.5405	19.5923	87.7686	-0.2087	-2.4225	80.3925	50.4200 
460.386	-0.1147	0.0713	0.2681	-13.1836	56.2134	87.4634	-0.0385	-1.9611	81.1176	50.2800 
460.386	-0.2344	-0.1855	0.7280	-30.5786	80.7495	61.5845	-0.4120	-1.0822	81.8317	50.3700 
460.417	-0.2832	-0.3691	1.2612	-45.4712	106.3232	26.0010	-0.9174	-0.0055	82.2217	50.3700 
460.417	-0.3267	-0.4292	1.8813	-53.3447	127.1973	0.6104	-1.5271	1.2689	82.2821	50.4200 
460.417	-0.1641	-0.4795	2.5210	-22.6440	145.8130	-5.1880	-1.9116	2.6917	82.1997	50.2300 
460.417	-0.2427	-0.4336	3.1270	20.2637	119.8730	-10.9253	-1.8677	4.0045	82.0679	50.2300 
460.417	-0.4478	-0.1045	3.1699	41.0767	10.3760	-3.6621	-1.5051	4.4330	81.9470	50.3700 
460.432	-0.3696	0.0786	2.5044	38.4521	-100.1587	14.7705	-1.0822	3.7024	82.0020	50.2300 
460.432	-0.1353	0.2104	1.6411	25.3296	-133.7891	33.8135	-0.7361	2.4115	82.2327	50.5200 
460.464	0.0371	0.1523	1.0425	2.6855	-90.2710	38.0249	-0.5823	1.3568	82.5403	50.5200 
460.464	0.1567	0.1558	0.9336	-21.2402	-29.8462	36.1328	-0.6812	0.8569	82.8369	50.2800 
460.479	0.2271	0.0244	1.1563	-28.9917	22.2168	27.4658	-0.9393	0.9009	83.0951	50.3700 
460.479	0.1387	-0.0146	1.3765	-18.3105	35.1563	17.2729	-1.1536	1.1920	83.2434	50.5200 
460.495	0.0864	-0.0400	1.4624	1.7090	25.8179	13.9160	-1.1865	1.4612	83.3368	50.3700 
460.495	0.0991	-0.1201	1.4482	13.3057	-5.4932	11.4136	-1.0876	1.4667	83.4302	50.2800 
460.495	0.0981	-0.1353	1.2114	15.9302	-33.4473	13.0005	-0.9558	1.1536	83.5400	50.2800 
460.527	0.1465	-0.1519	0.9995	13.1226	-44.7388	13.3667	-0.8569	0.6812	83.6719	50.3700 
460.527	0.2056	-0.1738	0.7998	7.6904	-44.6167	14.0381	-0.8240	0.1483	83.8202	50.2300 
460.527	0.2656	-0.1606	0.6572	2.4414	-30.2734	11.1694	-0.8624	-0.3076	83.9630	50.0800 
460.558	0.2856	-0.1025	0.6147	-1.0986	-11.7188	4.8218	-0.9174	-0.6097	84.0289	50.3700 
460.604	0.2422	-0.0601	0.6694	-4.1504	2.4414	-3.3569	-0.9833	-0.7416	84.0015	50.2300 
460.604	0.1748	-0.0635	0.7651	-5.4321	6.2866	-13.3057	-1.0602	-0.7635	83.8751	50.5600 
460.604	0.1177	-0.0654	0.8638	-3.7842	-1.6479	-22.5220	-1.1261	-0.8075	83.6499	50.3700 
460.620	0.0659	-0.0347	0.9023	-1.2207	-17.0288	-28.3813	-1.1481	-0.9668	83.3533	50.2300 
460.620	0.0332	0.0215	0.8398	0.6104	-32.5928	-29.6631	-1.1316	-1.2744	83.0182	50.3700 
460.652	-0.0264	0.0498	0.7109	0.1831	-41.1987	-30.7617	-1.0876	-1.6644	82.6611	50.3700 
460.652	-0.1089	0.0093	0.5483	-2.8687	-42.3584	-35.0952	-1.0767	-2.0380	82.2656	50.4200 
460.652	-0.2173	-0.0278	0.4111	-7.8125	-39.3066	-41.8091	-1.1151	-2.2906	81.7987	50.3700 
460.652	-0.2700	-0.0244	0.2983	-11.2305	-32.7148	-47.4243	-1.1481	-2.4060	81.1560	50.2300 
460.667	-0.2417	-0.0044	0.2261	-9.6436	-26.8555	-51.5137	-1.0712	-2.4609	80.2936	50.4200 
460.667	-0.1685	-0.0054	0.1631	-4.8828	-23.1323	-53.5889	-0.9393	-2.4829	79.3982	50.5200 
460.667	-0.0605	-0.0845	0.0356	1.2207	-18.7378	-54.4434	-1.1810	-2.5818	79.1180	50.3700 
460.683	-0.0820	-0.3179	-0.2109	2.8687	3.9673	-52.8564	-1.6534	-2.8564	78.8104	50.2800 
460.683	-0.2427	-0.1650	-0.0947	7.9346	44.9829	-50.1709	-2.1313	-2.6697	78.6182	50.1800 
460.714	-0.2290	-0.1914	0.3237	12.3291	64.2090	-51.0864	-2.3016	-2.0270	78.4589	50.3700 
460.714	-0.2798	-0.1069	0.6860	5.4321	87.0972	-36.1938	-2.2852	-1.0876	78.0743	50.3700 
460.729	-0.2827	0.0283	1.2026	9.6436	97.2900	-16.3574	-2.1918	-0.0494	77.7777	50.2800 
460.746	-0.0820	0.1123	1.7163	19.8975	103.1494	-2.5024	-1.9830	0.9833	77.6459	50.2800 
460.746	-0.0146	0.1011	2.2617	22.5830	102.9663	9.7656	-1.7303	2.0160	77.6514	50.3700 
460.746	-0.1831	0.0366	2.7075	21.4233	83.8013	13.1836	-1.4886	2.9279	77.7393	50.3700 
460.746	-0.4600	0.0029	2.7505	15.4419	31.6772	11.1084	-1.2964	3.4277	77.8052	50.2300 
460.777	-0.3594	-0.0703	2.4956	6.4697	-46.3257	12.1460	-1.1975	3.1970	77.9095	50.3700 
460.777	-0.1387	-0.2744	1.9517	-4.3335	-96.9849	11.1084	-1.2360	2.3346	78.0524	50.1800 
460.777	-0.0522	-0.5112	1.3926	-8.9722	-97.6563	-0.4883	-1.4117	1.3293	78.1677	50.2800 
460.823	0.0913	-0.5884	1.0503	-8.8501	-58.7769	-19.1650	-1.6534	0.5823	78.1567	50.5200 
460.886	0.2881	-0.4800	1.0610	-6.3477	-6.4697	-31.9824	-1.8622	0.2856	77.9535	50.2300 
460.886	0.3276	-0.3389	1.2466	-2.3193	29.5410	-31.4941	-1.9830	0.3955	77.6788	50.3700 
460.886	0.1948	-0.2085	1.4224	2.8076	33.3252	-27.8931	-2.0105	0.6702	77.4152	50.1800 
460.886	0.0083	-0.1333	1.4287	3.2349	12.7563	-27.3438	-2.0050	0.8240	77.1515	50.2800 
460.886	-0.0879	-0.0840	1.2734	1.1597	-9.5215	-27.7100	-2.0050	0.7855	76.8823	50.2800 
460.886	-0.0571	-0.0498	1.0781	-0.4272	-20.5078	-27.7710	-2.0160	0.6097	76.6132	50.3700 
460.886	0.0122	-0.0190	0.9321	-0.9155	-20.3247	-29.4189	-2.0215	0.3900	76.3330	50.2800 
460.886	0.0850	0.0161	0.8408	-0.9155	-16.4185	-28.5645	-2.0160	0.1758	76.0474	50.5200 
460.901	0.1167	0.0366	0.7993	1.4038	-9.4604	-22.3999	-1.9830	0.0055	75.8057	50.3700 
460.901	0.1074	0.0498	0.8340	2.3193	-3.9673	-12.8784	-1.9336	-0.0934	75.6464	50.5200 
460.901	0.0977	0.0435	0.8936	2.0142	-6.9580	0.3662	-1.8842	-0.1868	75.6079	50.2300 
460.917	0.0728	0.0596	0.9248	1.7090	-17.9443	14.7705	-1.8292	-0.3625	75.7123	50.1800 
460.948	0.0303	0.0483	0.8950	0.9766	-32.1655	28.2593	-1.7908	-0.6537	75.9595	50.2300 
460.948	0.0249	0.0249	0.7798	0.7324	-43.9453	37.8418	-1.7633	-1.0602	76.3110	50.2800 
460.980	0.0181	-0.0225	0.6270	0.6714	-49.5605	41.6870	-1.7633	-1.5381	76.7340	50.3700 
460.980	0.0093	-0.0679	0.4609	-0.4883	-46.3257	40.8325	-1.8073	-1.9995	77.1790	50.4200 
460.980	0.0024	-0.1216	0.3481	-1.7700	-36.3770	36.1938	-1.9281	-2.3785	77.6349	50.1800 
460.980	-0.0259	-0.1724	0.3042	-2.0142	-24.6582	30.2734	-2.1204	-2.6367	78.0853	50.3700 
460.980	-0.0918	-0.1714	0.2827	-0.9155	-17.2729	25.4517	-2.3291	-2.7686	78.5248	50.3700 
461.026	-0.1670	-0.1431	0.2588	1.8921	-12.3291	23.4985	-2.5269	-2.7686	78.9642	50.3700 
461.058	-0.2285	-0.0928	0.2236	4.5166	-6.9580	25.6348	-2.6917	-2.6367	79.4476	50.2300 
461.058	-0.2173	-0.0205	0.1938	7.2021	-0.7935	32.1045	-2.5763	-2.3730	79.5465	50.5200 
461.058	-0.1235	0.1909	0.1528	8.7891	8.9722	42.8467	-2.2357	-2.1698	79.6509	50.5600 
461.058	0.0093	0.4648	0.1357	8.7280	23.0713	72.9980	-1.7578	-2.0380	80.1233	50.5600 
461.058	0.0459	0.3770	0.2749	-6.4087	43.8843	99.7314	-1.4722	-1.7413	80.9088	50.2800 
461.058	-0.1011	-0.0068	0.5986	-25.8179	58.9600	100.7690	-1.6205	-1.1316	81.8372	50.1800 
461.058	-0.1592	-0.1987	0.9414	-33.3862	72.9370	60.6689	-2.0160	-0.3516	82.5403	50.3700 
461.089	-0.1641	-0.2036	1.3076	-37.0483	88.0127	32.4097	-2.4225	0.5493	82.8918	50.1800 
461.089	-0.1357	-0.2168	1.7490	-31.9824	97.9004	20.5688	-2.7905	1.5381	83.0621	50.2300 
461.089	-0.1045	-0.2773	2.2095	-12.7563	101.4404	22.8882	-2.9883	2.5653	83.2104	50.2800 
461.121	-0.1699	-0.3604	2.6699	8.9111	73.6084	19.4702	-2.9663	3.4167	83.3698	50.3700 
461.121	-0.2861	-0.1938	2.7056	14.0991	7.9956	21.1182	-2.8290	3.6859	83.5236	50.1800 
461.121	-0.2144	-0.0122	2.3306	7.5684	-53.0396	30.5786	-2.7081	3.3069	83.7708	50.2800 
461.151	-0.1372	0.1108	1.8462	-7.0801	-64.2090	38.5132	-2.6862	2.6862	84.1058	50.2300 
461.167	-0.0562	0.1108	1.5513	-23.4985	-33.6914	33.5083	-2.8235	2.2742	84.4080	50.5600 
461.167	0.0005	0.0898	1.5596	-28.1372	-10.8643	19.0430	-3.0597	2.1259	84.5782	50.3700 
461.183	0.0459	0.0493	1.5093	-19.7144	-12.5122	7.9956	-3.2465	1.9940	84.6277	50.5200 
461.199	0.0430	0.0195	1.3291	-6.8970	-20.8740	3.0518	-3.3179	1.7908	84.6222	50.2300 
461.199	0.0625	0.0078	1.0884	2.8076	-30.0293	4.0283	-3.2904	1.4832	84.6222	50.3700 
461.199	0.1162	0.0039	0.8457	7.6294	-28.8086	7.7515	-3.2025	1.1426	84.6552	50.2800 
461.245	0.1763	0.0044	0.7114	8.4839	-18.9209	17.5781	-3.0981	0.8514	84.7760	50.3700 
461.245	0.2310	-0.0596	0.6855	6.5918	-9.3384	31.6162	-3.0322	0.6427	85.0342	50.3700 
461.277	0.2534	-0.1128	0.7310	2.9907	-3.6621	43.2739	-3.0212	0.4999	85.4297	50.3700 
461.292	0.2559	-0.1621	0.8281	-1.6479	-4.2114	47.1191	-3.0707	0.3790	85.8856	50.5200 
461.292	0.1943	-0.2217	0.9204	-6.0425	-12.0239	41.3208	-3.1750	0.2307	86.3196	50.1800 
461.292	0.1201	-0.2817	0.9346	-8.1787	-23.2544	25.0854	-3.3289	-0.0055	86.6382	50.5200 
461.292	0.0669	-0.2959	0.8569	-7.8125	-28.8086	3.9063	-3.4991	-0.3076	86.7700	50.2800 
461.292	0.0356	-0.2817	0.7568	-5.4932	-28.5645	-16.9678	-3.6584	-0.6262	86.7041	50.3700 
461.292	0.0132	-0.2495	0.6489	-3.1128	-25.5127	-34.9121	-3.7903	-0.9174	86.4569	50.2800 
461.308	-0.0269	-0.1914	0.5630	-1.0986	-24.4751	-47.6685	-3.8947	-1.1810	86.0669	50.2800 
461.323	-0.0830	-0.1133	0.4668	0.6714	-24.5361	-55.2979	-3.9496	-1.4117	85.5780	50.3700 
461.323	-0.1421	-0.0386	0.3711	3.4790	-22.6440	-57.1899	-3.9276	-1.5656	85.0067	50.0400 
461.339	-0.1953	0.0215	0.2949	5.7373	-21.3013	-55.4810	-3.7903	-1.6425	84.3146	50.2300 
461.339	-0.2085	0.0498	0.2148	7.3242	-22.2168	-52.9175	-3.5266	-1.7084	83.4961	50.2300 
461.354	-0.1602	-0.0234	0.0981	10.0098	-21.4233	-52.6123	-3.1531	-1.8018	82.5128	50.2300 
461.354	-0.0815	-0.2656	-0.0811	9.8877	-10.3149	-53.8940	-3.5101	-2.0709	82.3315	50.2800 
461.354	-0.2144	-0.1675	-0.2549	13.2446	33.7524	-55.1758	-3.9771	-2.0380	82.0020	50.2300 
461.370	-0.4009	-0.2368	0.0625	20.6299	67.2607	-61.7676	-4.2737	-1.5381	81.7932	50.3700 
461.418	-0.4653	-0.2207	0.3730	13.5498	97.6563	-64.7583	-4.4110	-0.6152	81.5295	50.3700 
461.433	-0.5864	-0.0396	0.8438	13.0615	127.9297	-51.1475	-4.2792	0.7745	80.8154	50.1800 
461.433	-0.4209	0.2017	1.4756	23.6816	147.6440	-35.4004	-4.0100	2.2632	80.2167	50.2300 
461.433	-0.1011	0.2627	2.3979	36.8042	161.0718	-15.4419	-3.6200	3.8507	79.8541	50.3700 
461.464	-0.0039	0.2417	3.3198	41.8091	125.6104	7.9346	-3.1696	5.1965	79.7662	50.3700 
461.464	-0.3091	0.2300	3.5410	36.1328	44.1284	17.0898	-2.7356	5.8557	79.8431	50.2800 
461.464	-0.4673	0.1680	2.9624	18.0054	-74.4019	29.1138	-2.4445	5.4272	80.0739	50.2300 
461.464	-0.1802	-0.1152	1.9756	2.3804	-151.4282	30.8838	-2.3511	4.0869	80.4199	50.2300 
461.496	0.0479	-0.3970	1.0825	-5.7373	-161.1328	21.9727	-2.4500	2.4445	80.7715	50.3700 
461.496	0.1328	-0.5806	0.4565	-10.3149	-104.8584	1.4038	-2.7631	1.1206	81.0187	50.3700 
461.496	0.1738	-0.5811	0.3071	-9.8267	-14.7095	-19.3481	-3.1696	0.5603	81.0297	50.0800 
461.496	0.1938	-0.5103	0.7104	-6.5308	61.4014	-32.4097	-3.4552	0.8569	80.8154	50.3700 
461.527	0.1045	-0.3726	1.2939	0.0000	92.2852	-35.7666	-3.5760	1.6534	80.4639	50.3700 
461.542	-0.0498	-0.1831	1.6582	7.4463	76.4160	-33.2031	-3.5596	2.4445	80.0848	50.2800 
461.542	-0.1943	-0.0664	1.6968	6.4697	32.6538	-26.3062	-3.4991	2.8839	79.7607	50.2800 
461.558	-0.2607	0.0127	1.5073	3.6621	-8.2397	-18.6157	-3.4442	2.9114	79.5245	50.1800 
461.558	-0.1938	0.0640	1.2588	2.0142	-34.9731	-13.1226	-3.3893	2.6532	79.3542	50.3700 
461.558	-0.0303	0.0698	1.0454	2.7466	-49.9878	-10.8032	-3.3289	2.1808	79.2279	50.5200 
461.589	0.1528	0.0571	0.8604	3.2959	-55.7251	-5.9814	-3.2520	1.5765	79.1620	50.5200 
461.589	0.2378	0.0278	0.6973	2.9907	-53.4058	0.8545	-3.1915	0.9229	79.1730	50.1800 
461.589	0.2183	-0.0073	0.5811	3.1738	-44.6777	7.1411	-3.1421	0.3351	79.2609	50.3700 
461.621	0.1826	-0.0156	0.5532	3.2349	-36.0107	12.0239	-3.1036	-0.1483	79.3872	50.0800 
461.621	0.1582	-0.0020	0.5425	1.5869	-28.1982	16.5405	-3.0652	-0.5383	79.5520	50.4200 
461.621	0.1230	-0.0063	0.5649	-0.7935	-24.2310	21.8506	-3.0542	-0.8514	79.7607	50.1800 
461.667	0.0674	-0.0400	0.5820	-2.5024	-24.6582	26.3062	-3.0817	-1.1206	80.0299	50.3700 
461.667	-0.0176	-0.0557	0.5586	-2.8687	-26.3062	26.6724	-3.1311	-1.3623	80.3101	50.0400 
461.667	-0.1050	-0.0752	0.5200	-1.4648	-28.9307	24.7192	-3.1860	-1.5656	80.5792	50.2300 
461.715	-0.1646	-0.1201	0.4688	0.9766	-31.9214	21.3013	-3.2465	-1.7523	80.8539	50.1800 
461.715	-0.2031	-0.1460	0.3984	4.8828	-34.0576	18.0664	-3.3234	-1.9336	81.1505	50.0800 
461.715	-0.2266	-0.1289	0.3296	8.8501	-34.0576	19.2261	-3.3838	-2.0874	81.4856	50.0800 
461.715	-0.2085	-0.0820	0.2432	12.5122	-33.3252	23.0713	-3.4058	-2.1918	81.8591	50.3700 
461.715	-0.1333	0.1104	0.1309	17.9443	-29.2969	31.9214	-3.0487	-2.3016	81.8921	50.2300 
461.715	-0.0361	0.4624	0.0298	25.2075	-15.3198	52.8564	-2.3785	-2.5323	82.1777	50.2300 
461.746	0.0317	0.3853	0.0010	13.3667	17.4561	84.3506	-1.7523	-2.5598	82.8369	50.2800 
461.746	-0.1475	0.1118	0.2886	-10.4980	55.6030	84.7168	-1.5601	-2.0380	83.4741	50.3700 
461.777	-0.2295	-0.1826	0.7080	-26.8555	91.1255	63.2935	-1.8512	-1.0602	84.1443	50.3700 
461.777	-0.3369	-0.3193	1.2661	-42.9688	115.2344	27.2217	-2.3236	0.1373	84.4958	50.2300 
461.777	-0.4336	-0.2974	1.7876	-42.6025	115.9668	7.9956	-2.8235	1.3898	84.5618	50.0800 
461.777	-0.2773	-0.2202	2.2720	-11.9019	116.5161	7.9346	-3.0432	2.5928	84.5618	49.8900 
461.777	-0.2437	-0.1968	2.7891	21.5454	89.2944	10.2539	-2.9114	3.6035	84.5892	50.0400 
461.808	-0.3452	0.0557	2.9087	36.1328	4.9438	19.1040	-2.5433	3.9056	84.6826	50.2800 
461.808	-0.3296	0.1821	2.4819	27.5879	-78.9795	38.5132	-2.1753	3.3234	84.9847	50.5600 
461.808	-0.0615	0.2559	1.8789	6.1646	-92.9565	47.9126	-1.9775	2.4005	85.4077	50.2300 
461.840	0.0337	0.1436	1.4712	-16.6626	-56.3354	37.7197	-2.0215	1.7194	85.7758	50.3700 
461.840	0.1450	0.0015	1.4224	-28.3813	-11.3525	23.5596	-2.2522	1.4777	86.0120	50.2800 
461.840	0.1606	-0.0527	1.5239	-22.8271	-0.7935	12.7563	-2.4994	1.4282	86.1273	50.2300 
461.840	0.0903	-0.0566	1.4487	-7.0190	-14.9536	8.9111	-2.6093	1.2909	86.1987	50.2300 
461.886	0.0898	-0.0322	1.2109	8.4229	-26.0620	8.7891	-2.5543	1.0217	86.2592	50.2300 
461.901	0.1113	-0.0322	0.9644	16.9678	-27.3438	13.1226	-2.3950	0.7141	86.3580	50.0800 
461.901	0.1108	-0.0054	0.7642	19.1040	-21.0571	20.7520	-2.1973	0.4340	86.5118	50.2300 
461.933	0.1426	-0.0566	0.6646	17.5781	-8.9111	24.1089	-2.0270	0.2527	86.7316	50.2800 
461.933	0.2114	-0.0762	0.6572	12.6343	2.8076	27.0996	-1.9116	0.1648	86.9788	50.2800 
461.933	0.2627	-0.0854	0.6909	4.8218	10.8643	30.6396	-1.8787	0.1428	87.2589	50.2300 
461.933	0.2715	-0.1016	0.7681	-2.9907	16.4795	32.5317	-1.9226	0.1923	87.5555	50.2300 
461.933	0.2148	-0.1812	0.8833	-8.6670	15.9302	29.1748	-2.0435	0.2747	87.8522	50.3700 
461.933	0.1357	-0.2534	0.9858	-11.2915	6.9580	17.5171	-2.2247	0.3241	88.0609	50.2800 
461.965	0.0620	-0.3066	1.0293	-10.9863	-6.6528	-0.2441	-2.4170	0.2692	88.1268	50.5200 
461.965	0.0464	-0.3037	0.9888	-7.6294	-19.9585	-22.5220	-2.5928	0.0769	87.9840	50.5200 
461.996	0.0693	-0.2275	0.8926	-2.9297	-29.7241	-40.4053	-2.7081	-0.2362	87.6489	50.2800 
462.011	0.1240	-0.1792	0.8120	1.7700	-34.6069	-54.1992	-2.7521	-0.6372	87.1710	50.2300 
462.011	0.1372	-0.0708	0.7124	2.8687	-38.0249	-60.3027	-2.7466	-1.0986	86.5833	50.3700 
462.027	0.0625	-0.0186	0.5928	1.7090	-37.9028	-62.0728	-2.7136	-1.5436	85.9570	50.2300 
462.027	-0.0737	0.0303	0.4600	0.7935	-34.2407	-62.0117	-2.6532	-1.8951	85.2924	50.2300 
462.027	-0.1978	0.0444	0.3633	0.6714	-25.6958	-62.8052	-2.5488	-2.0599	84.5453	50.1800 
462.027	-0.2632	0.0908	0.2817	2.5635	-15.3198	-63.2324	-2.3181	-2.0819	83.6334	50.1800 
462.058	-0.2729	0.0723	0.2544	6.4697	-5.7983	-59.5093	-2.0050	-2.0105	82.6721	50.2300 
462.058	-0.2925	0.0269	0.2559	10.4370	0.0610	-57.4951	-1.6754	-1.8237	81.7163	50.2300 
462.058	-0.2793	-0.0166	0.2393	13.3667	-3.1738	-56.4575	-1.3458	-1.6315	80.7605	50.2300 
462.105	-0.1987	-0.1626	0.1323	13.9160	-6.4697	-54.0161	-1.4722	-1.5985	80.5792	50.3700 
462.120	-0.2251	-0.0146	-0.0093	17.3950	18.6768	-60.3027	-1.2744	-1.4832	79.9805	50.1800 
462.120	-0.2827	0.0835	0.1904	22.3999	47.6685	-52.4292	-0.6976	-0.9393	78.9752	50.2300 
462.120	-0.2871	0.1470	0.5049	20.0195	79.2847	-35.6445	-0.3296	-0.0769	78.3380	50.1800 
462.151	-0.3735	0.2256	1.0386	17.3950	104.9194	-11.2305	-0.0494	1.0217	78.0249	50.2800 
462.151	-0.2681	0.2700	1.6748	22.3999	113.8916	11.5356	0.2252	2.1973	78.0194	50.2300 
462.151	-0.0581	0.3301	2.4155	22.5220	120.1782	39.7949	0.5164	3.3783	78.3051	50.3700 
462.151	-0.2178	0.1509	3.0645	14.4043	79.5288	51.5747	0.7361	4.2902	78.7885	50.0800 
462.151	-0.5205	-0.0142	3.0776	7.6294	-10.9253	39.9170	0.8624	4.4275	79.2059	50.0800 
462.151	-0.3906	-0.1401	2.4253	-0.9155	-91.3086	24.2310	0.8789	3.7244	79.4476	50.3700 
462.199	0.0059	-0.4014	1.6479	-5.6763	-114.9902	16.3574	0.7690	2.5763	79.6454	50.2300 
462.199	0.0938	-0.5864	1.2256	-7.6904	-85.0220	2.5024	0.5658	1.5820	79.7882	50.3700 
462.199	0.2153	-0.6709	1.1260	-5.5542	-37.7808	-19.2261	0.3296	1.0052	79.7552	50.2800 
462.199	0.2593	-0.5513	1.1548	-1.0986	-4.1504	-37.8418	0.1538	0.8020	79.5081	50.1800 
462.230	0.2192	-0.3701	1.1831	3.6011	7.6294	-47.1802	0.0659	0.7800	79.1235	50.0800 
462.230	0.1812	-0.2422	1.1318	6.8970	8.3618	-50.4761	0.0439	0.7965	78.6786	50.0800 
462.230	0.1274	-0.1465	1.0742	7.0190	4.7607	-50.2319	0.0604	0.8075	78.2062	50.2300 
462.230	0.1265	-0.0986	1.0322	5.1880	-0.1221	-45.6543	0.0714	0.7690	77.7612	50.2800 
462.230	0.1714	-0.0630	0.9873	2.9907	-0.6714	-42.4194	0.0824	0.7031	77.3547	50.0800 
462.261	0.2041	-0.0225	0.9604	0.9155	1.8921	-39.8560	0.0824	0.6482	76.9647	50.3700 
462.261	0.1909	0.0181	0.9731	-0.0610	4.2114	-36.0718	0.0824	0.6097	76.6022	50.2300 
462.308	0.1333	0.0425	1.0078	0.3662	6.1646	-30.4565	0.0934	0.6097	76.2836	50.2800 
462.308	0.0449	0.0552	1.0586	1.2207	7.4463	-23.0713	0.1154	0.6592	76.0309	50.3700 
462.308	-0.0430	0.0688	1.0889	1.4648	3.9673	-14.6484	0.1483	0.7141	75.8441	50.0400 
462.308	-0.1113	0.0684	1.0713	1.3428	-2.8076	-5.3711	0.1813	0.7306	75.7507	50.1800 
462.339	-0.1187	0.0557	1.0229	2.5024	-9.7656	3.9063	0.2197	0.6866	75.7452	50.3700 
462.355	-0.0430	0.0352	0.9634	3.3569	-19.8364	12.3901	0.2692	0.5328	75.8331	50.0800 
462.355	0.0508	0.0103	0.8770	2.3193	-31.6162	20.9351	0.2966	0.2307	76.0144	50.0800 
462.370	0.0977	-0.0308	0.7407	-0.6104	-40.7104	27.5269	0.2911	-0.1868	76.2836	50.2800 
462.370	0.0708	-0.0811	0.5825	-4.2725	-41.8701	28.6865	0.2142	-0.6537	76.6022	50.2300 
462.386	-0.0005	-0.1187	0.4590	-6.7749	-33.7524	23.7427	0.0714	-1.0327	76.9098	50.0800 
462.386	-0.1221	-0.1294	0.4053	-7.7515	-21.6675	15.5640	-0.1154	-1.2140	77.1790	50.1800 
462.386	-0.2451	-0.1162	0.4097	-8.3618	-12.3901	11.5356	-0.3131	-1.2030	77.3877	50.0800 
462.401	-0.3032	-0.0942	0.4146	-8.1787	-6.5918	13.1836	-0.4779	-1.0712	77.5635	50.2300 
462.433	-0.3096	-0.0801	0.4336	-7.1411	-5.5542	20.1416	-0.6152	-0.9119	77.7557	50.2300 
462.433	-0.2988	-0.0127	0.4414	-6.6528	-12.5122	30.5176	-0.6866	-0.8020	77.9590	50.4200 
462.448	-0.2310	0.1133	0.3423	-5.7373	-21.8506	43.1519	-0.6262	-0.8240	78.1622	50.2800 
462.448	-0.0894	0.3594	0.1768	-3.2959	-21.3013	61.0352	-0.3461	-1.0217	78.4973	50.2300 
462.480	0.0547	0.3711	0.0757	-8.3618	0.3662	80.9937	-0.0165	-1.2085	79.1455	50.3700 
462.480	-0.0264	0.2031	0.2070	-22.4609	28.4424	90.2710	0.0879	-1.0657	79.8816	50.2300 
462.480	-0.1855	-0.1426	0.5166	-36.8652	57.1899	67.5049	-0.3021	-0.4559	80.6396	50.2300 
462.480	-0.2578	-0.3677	0.9761	-49.4385	81.6650	23.9868	-0.8899	0.3845	81.0626	50.1800 
462.480	-0.2559	-0.4434	1.5425	-53.0396	95.2148	-9.1553	-1.5271	1.3513	81.0791	50.2300 
462.526	-0.0908	-0.4023	2.0693	-34.4238	97.9614	-18.4326	-1.9995	2.3346	80.8978	50.1800 
462.526	0.0142	-0.3311	2.4917	0.4272	81.0547	-13.4888	-2.1313	3.1860	80.7275	50.2800 
462.526	-0.0713	-0.0576	2.5493	22.6440	16.7847	-0.4883	-1.9556	3.5266	80.6451	50.2300 
462.558	-0.1401	0.0747	2.0894	23.4375	-57.4951	14.2822	-1.6864	3.1201	80.7275	50.2300 
462.558	0.0049	0.2905	1.4712	18.0054	-83.2520	26.4893	-1.4227	2.3016	80.9088	50.2300 
462.558	0.1460	0.3872	1.0918	8.0566	-53.7109	41.1377	-1.1920	1.6150	81.2054	50.2300 
462.558	0.1787	0.2153	1.0884	-13.5498	-4.6997	49.2554	-1.1700	1.3843	81.6174	50.0400 
462.590	0.1855	-0.0459	1.3721	-32.6538	34.7900	40.4663	-1.4337	1.5930	82.0184	50.2300 
462.590	0.1406	-0.1963	1.7231	-32.4707	45.8984	20.9961	-1.7908	2.0105	82.2491	50.0800 
462.590	0.0410	-0.1050	1.8721	-13.5498	22.7661	10.2539	-1.9940	2.2906	82.3370	50.2300 
462.621	-0.0005	-0.0728	1.7109	4.8828	-14.4043	8.7280	-1.9830	2.2302	82.3975	50.1800 
462.621	0.0342	-0.0615	1.3311	11.4746	-45.0439	9.9487	-1.8787	1.8237	82.4744	50.2800 
462.621	0.0469	-0.0830	0.9731	11.8408	-49.5605	9.1553	-1.7688	1.3019	82.5623	50.2800 
462.652	0.0693	-0.0874	0.7578	9.2163	-37.3535	8.1787	-1.6974	0.8624	82.6447	50.1800 
462.652	0.1558	-0.0513	0.6699	5.3101	-16.2964	9.0332	-1.6534	0.5768	82.7216	50.0800 
462.652	0.2339	0.0000	0.7368	-0.7935	2.4414	12.3901	-1.6425	0.4614	82.8094	50.2300 
462.652	0.2432	-0.0303	0.9155	-5.0659	9.0332	15.8691	-1.6864	0.4504	82.9413	50.2800 
462.698	0.1978	-0.0552	1.0864	-5.4932	-0.1221	14.8926	-1.7523	0.4120	83.0676	50.0800 
462.714	0.1270	-0.1157	1.1445	-2.9907	-16.0522	10.1318	-1.8073	0.2527	83.1720	50.3700 
462.730	0.0967	-0.1392	1.1226	0.1831	-31.4941	0.9766	-1.8402	-0.0494	83.2050	50.1800 
462.730	0.1338	-0.1235	1.0000	2.2583	-43.8843	-8.9722	-1.8567	-0.4999	83.1500	50.0800 
462.730	0.1338	-0.1143	0.8149	1.4038	-46.7529	-18.6768	-1.8732	-1.0217	83.0017	50.0400 
462.730	0.0913	-0.1060	0.6772	-1.5259	-38.9404	-29.6631	-1.9171	-1.4832	82.7545	50.5600 
462.761	0.0361	-0.0713	0.6074	-4.6997	-30.3955	-39.9780	-1.9775	-1.8402	82.3865	50.0800 
462.761	-0.0620	-0.0479	0.5742	-5.8594	-21.7285	-46.5698	-2.0325	-2.0599	81.9305	50.1800 
462.761	-0.1929	-0.0215	0.5493	-6.1035	-17.7612	-51.0254	-2.0709	-2.1478	81.3867	50.2800 
462.761	-0.2368	0.0127	0.4790	-2.9907	-16.4795	-52.1240	-2.0490	-2.1808	80.7605	50.0800 
462.792	-0.2290	0.0044	0.3867	0.7324	-11.7798	-50.3540	-1.9775	-2.1478	80.1178	50.2300 
462.792	-0.2119	-0.0405	0.3037	4.8828	-9.6436	-47.0581	-1.9006	-2.0544	79.5410	50.3700 
462.792	-0.1909	-0.0747	0.1792	8.2397	-8.1177	-47.4243	-1.9885	-1.9720	79.3323	50.0800 
462.792	-0.1079	-0.1602	0.0093	9.7656	-1.5259	-44.7998	-2.2742	-2.0599	79.3048	50.0400 
462.839	-0.1426	-0.1270	-0.0977	10.4980	24.0479	-44.3115	-2.7026	-2.0654	79.1675	50.2800 
462.839	-0.2876	-0.1040	0.1187	13.1836	50.4150	-38.8184	-3.0212	-1.7139	79.2554	50.1800 
462.839	-0.3560	-0.1255	0.4429	13.5498	67.3828	-38.9404	-3.0652	-0.9558	79.1455	50.2300 
462.839	-0.3779	-0.0522	0.8262	10.3149	87.6465	-31.4941	-2.9663	0.0165	78.7335	50.1800 
462.870	-0.2886	0.0737	1.3228	9.5825	102.9663	-17.4561	-2.8345	1.0822	78.4149	50.2300 
462.870	-0.0884	0.0898	1.9048	8.5449	110.6567	-3.2349	-2.7136	2.1918	78.2556	50.0800 
462.870	0.0020	0.0737	2.4888	11.2915	96.0693	11.1694	-2.5873	3.1860	78.2666	50.3700 
462.870	-0.1636	0.0762	2.6904	10.8643	47.9126	16.4795	-2.4445	3.8068	78.3655	50.2300 
462.933	-0.2783	0.0732	2.3911	9.8267	-25.2075	18.9209	-2.3071	3.7628	78.5138	50.2800 
462.933	-0.1494	-0.0288	1.7881	5.2490	-80.2002	23.9258	-2.2083	3.0927	78.7445	50.2300 
462.933	-0.0381	-0.1987	1.1455	-0.4883	-80.8105	22.6440	-2.2192	2.2522	79.0302	50.2300 
462.933	0.0610	-0.3120	0.8950	-3.6621	-36.4990	10.0708	-2.3291	1.7413	79.2554	50.0800 
462.964	0.1953	-0.3237	1.0259	-5.2490	7.9956	-3.1738	-2.4664	1.6479	79.3213	50.1800 
462.980	0.2402	-0.2744	1.2476	-4.4556	35.7666	-10.8643	-2.5818	1.8677	79.2554	50.2300 
462.980	0.2217	-0.2017	1.4219	-3.0518	35.5225	-12.5732	-2.6587	2.1643	79.1345	50.2300 
462.980	0.1895	-0.1670	1.4014	-1.9531	18.9209	-13.3667	-2.7081	2.3291	79.0082	50.2300 
462.996	0.1694	-0.1377	1.2529	0.0000	4.3335	-12.8784	-2.7411	2.3346	78.8818	50.0400 
462.996	0.1348	-0.1377	1.0918	0.6104	-3.1738	-12.1460	-2.7576	2.2577	78.7720	50.1800 
462.996	0.0972	-0.1470	0.9336	0.1831	-3.8452	-12.9395	-2.7960	2.1588	78.6676	50.1800 
462.996	0.0620	-0.1333	0.8438	0.6714	1.0986	-15.2588	-2.8290	2.1094	78.5413	50.3700 
463.027	0.0508	-0.1099	0.8198	0.5493	8.7280	-14.3433	-2.8619	2.1368	78.4094	50.2800 
463.027	0.0430	-0.1011	0.8647	1.0376	13.6108	-11.1084	-2.8784	2.2247	78.2941	50.0400 
463.027	0.0186	-0.0840	0.9409	1.1597	14.1602	-5.9204	-2.8839	2.3401	78.2172	50.1800 
463.058	0.0244	-0.0752	1.0361	2.2583	11.0474	-1.4648	-2.8784	2.4390	78.1842	50.0800 
463.058	0.0703	-0.0664	1.1060	2.8687	1.4038	3.8452	-2.8564	2.4500	78.2007	50.1800 
463.058	0.1060	-0.0713	1.0894	2.5635	-13.1836	9.3994	-2.8290	2.3126	78.2776	50.0400 
463.090	0.0859	-0.0889	1.0054	2.7466	-25.8789	13.4277	-2.8070	2.0490	78.4149	50.1800 
463.105	0.0259	-0.1138	0.8584	2.5024	-33.5693	15.7471	-2.8015	1.7029	78.5852	50.0800 
463.136	-0.0298	-0.1343	0.7188	0.7935	-32.3486	14.7705	-2.8235	1.3788	78.7720	50.0800 
463.136	-0.0610	-0.1382	0.6099	-0.6714	-24.2920	12.6343	-2.8839	1.1426	78.9423	50.1800 
463.136	-0.1040	-0.1353	0.5488	-2.5635	-14.0991	9.6436	-2.9663	1.0272	79.0906	50.2300 
463.136	-0.1660	-0.1118	0.5039	-4.0894	-5.6763	8.6060	-3.0652	1.0437	79.2059	49.8900 
463.167	-0.2168	-0.0625	0.4722	-4.6997	0.0000	10.5591	-3.1421	1.1646	79.2828	50.0800 
463.167	-0.2661	0.0044	0.4404	-4.3945	2.0752	15.8081	-3.1421	1.3568	79.2993	50.3700 
463.167	-0.2935	0.0688	0.4180	-4.3335	-1.5259	23.2544	-3.0652	1.5271	79.2993	50.2800 
463.167	-0.2617	0.1533	0.3491	-3.0518	-7.5073	33.5693	-2.9004	1.6150	79.3378	50.3700 
463.183	-0.1597	0.3076	0.2373	-0.3662	-6.7139	44.4336	-2.6093	1.6095	79.4971	50.2300 
463.183	-0.0068	0.5132	0.1504	5.4932	-0.2441	69.5190	-2.1533	1.5216	79.9530	50.1800 
463.183	0.0332	0.3628	0.1636	-2.5635	19.7144	90.0269	-1.7468	1.5436	80.6781	50.1800 
463.198	-0.1323	0.0874	0.4214	-20.9351	43.1519	91.8579	-1.7029	1.9611	81.4252	50.2300 
463.230	-0.2583	-0.1978	0.8062	-35.0952	65.3076	62.0728	-2.0490	2.6752	82.0953	50.3700 
463.230	-0.2993	-0.4131	1.2856	-43.9453	85.7544	29.2358	-2.5433	3.5651	82.4799	50.3700 
463.230	-0.3218	-0.5200	1.6821	-40.4663	99.6094	9.2163	-3.0542	4.5648	82.6062	50.0800 
463.262	-0.2485	-0.5386	2.1343	-11.5356	114.0747	4.0894	-3.3234	5.6854	82.6172	50.1800 
463.262	-0.2729	-0.4897	2.6050	20.6909	90.4541	-2.1973	-3.2520	6.6797	82.5568	50.0800 
463.262	-0.3369	-0.1460	2.6724	37.1704	10.5591	-3.5400	-2.9224	7.0038	82.4579	49.9900 
463.293	-0.2305	0.0386	2.2007	35.8276	-70.6787	2.5635	-2.5269	6.4709	82.4304	50.0400 
463.293	-0.0298	0.1714	1.4805	23.1934	-109.1309	15.5029	-2.2083	5.4163	82.5128	50.0800 
463.293	0.1255	0.2402	0.9268	14.4653	-88.7451	25.6348	-1.9501	4.3890	82.6886	50.2800 
463.293	0.2246	0.2798	0.7378	8.1177	-44.5557	33.4473	-1.7139	3.7079	82.9303	50.2300 
463.339	0.2886	0.2783	0.8071	-1.2817	4.0894	37.4146	-1.5765	3.4882	83.2159	50.0400 
463.339	0.2935	0.2212	1.0547	-11.5356	42.9688	37.2925	-1.5710	3.7189	83.5016	50.2300 
463.339	0.2280	0.0640	1.3516	-13.9160	57.6782	31.0669	-1.6534	4.1913	83.7488	50.1800 
463.339	0.1143	-0.1250	1.5864	-7.3242	45.1660	20.3247	-1.7468	4.6362	83.9301	50.1800 
463.371	-0.0239	-0.2314	1.6196	1.7090	14.1602	7.4463	-1.7743	4.8395	84.0070	50.1800 
463.371	-0.1060	-0.2578	1.4575	6.3477	-18.9819	-3.8452	-1.7743	4.7186	83.9850	50.2800 
463.386	-0.0928	-0.2280	1.2441	7.1411	-42.4194	-12.1460	-1.7633	4.3451	83.8806	50.2300 
463.386	0.0156	-0.1895	1.0142	6.4087	-51.2085	-15.9302	-1.7578	3.8177	83.7378	50.0800 
463.402	0.1519	-0.1563	0.8652	3.7231	-48.2788	-17.1509	-1.7743	3.2574	83.5785	50.2300 
463.402	0.2778	-0.1543	0.7983	-0.3052	-38.5132	-17.8223	-1.8237	2.7246	83.4082	50.1800 
463.402	0.3335	-0.1543	0.8379	-3.9673	-29.7241	-20.5078	-1.9171	2.2632	83.2214	50.0400 
463.417	0.2842	-0.1255	0.9053	-4.6387	-27.9541	-27.2217	-2.0105	1.8512	82.9688	50.1800 
463.448	0.1719	-0.0566	0.9092	-3.2959	-34.5459	-35.9497	-2.0764	1.4282	82.6172	50.2300 
463.448	0.0352	-0.0435	0.7788	-2.8687	-42.7246	-46.8140	-2.1259	0.9723	82.1558	50.2300 
463.448	-0.0654	-0.0562	0.6138	-1.2207	-45.3491	-59.3262	-2.1643	0.5219	81.5845	50.4200 
463.480	-0.1025	-0.0513	0.4468	2.0142	-41.5649	-70.4346	-2.1753	0.1373	80.8923	50.2300 
463.480	-0.1191	-0.0444	0.3018	4.7607	-34.0576	-79.3457	-2.1588	-0.1318	80.1013	50.0400 
463.480	-0.1636	-0.0728	0.1758	6.4087	-24.6582	-84.6558	-2.2137	-0.2527	79.3982	50.5600 
463.480	-0.2207	-0.0718	0.0864	6.1035	-15.5640	-87.5244	-2.5104	-0.5164	79.1071	50.0800 
463.512	-0.2593	-0.0737	0.0059	4.9438	-8.6670	-86.2427	-2.8949	-0.7690	78.7665	50.1800 
463.558	-0.2236	-0.1738	-0.1025	2.0752	2.9907	-80.1392	-3.3673	-0.9558	78.3710	50.0400 
463.573	-0.2837	-0.2427	-0.1938	1.4038	35.5225	-76.7212	-3.9001	-0.9064	77.9150	50.1800 
463.621	-0.4448	-0.2144	0.0527	6.2256	78.1860	-74.6460	-4.3231	-0.3900	77.5854	50.2800 
463.621	-0.5952	-0.0620	0.5562	8.7280	112.7930	-72.9980	-4.3176	0.6537	76.8604	50.0800 
463.621	-0.6113	0.1670	1.2500	12.0850	137.8784	-50.3540	-4.1254	2.0929	75.9760	50.3700 
463.621	-0.3540	0.3506	2.0210	30.8228	146.6064	-9.9487	-3.7848	3.5651	75.5530	50.1800 
463.621	-0.1519	0.4351	2.8081	46.3257	150.0244	32.6538	-3.2739	5.0647	75.6079	50.1800 
463.621	-0.3608	0.3237	3.4712	36.4380	87.2803	54.8706	-2.7686	6.1523	75.9924	50.0400 
463.621	-0.8071	0.3022	3.0845	17.4561	-22.5220	49.4995	-2.4390	6.2677	76.4264	50.1800 
463.621	-0.6504	0.1445	2.1997	-4.3945	-118.7134	44.9829	-2.3346	5.3613	76.8329	50.2300 
463.621	-0.2212	-0.1563	1.2876	-12.2681	-149.5972	37.1094	-2.4115	3.9606	77.2339	50.0400 
463.621	0.0396	-0.4556	0.6914	-13.1836	-127.5024	26.6113	-2.6477	2.5873	77.6843	50.2800 
463.652	0.1616	-0.5884	0.3555	-15.3809	-65.1245	5.7373	-3.0542	1.6040	77.9974	50.0800 
463.652	0.2954	-0.5220	0.4966	-14.4653	9.2163	-9.6436	-3.4332	1.3129	78.0634	50.1800 
463.667	0.3232	-0.4561	0.9258	-10.2539	65.8569	-12.8174	-3.6969	1.6974	77.9810	50.1800 
463.667	0.2427	-0.4116	1.4775	-1.0376	89.9658	-12.5122	-3.8177	2.4664	77.8436	50.2300 
463.667	0.1494	-0.3076	1.9438	6.8359	70.0684	-13.0615	-3.8068	3.1860	77.6733	50.1800 
463.699	0.0425	-0.1729	2.0674	5.9814	14.3433	-8.1177	-3.7628	3.4442	77.5525	50.2800 
463.699	-0.0430	-0.1079	1.8159	1.0986	-37.3535	-5.0049	-3.7408	3.1696	77.4921	50.0800 
463.730	-0.0386	-0.0894	1.3730	-3.1738	-65.0635	-7.6904	-3.7628	2.5598	77.4426	50.2300 
463.730	0.0332	-0.0981	0.9448	-5.1880	-60.9741	-16.7847	-3.8232	1.8951	77.3328	50.1800 
463.730	0.0864	-0.0591	0.6670	-7.5073	-40.8936	-24.3530	-3.9056	1.3733	77.1350	50.2800 
463.777	0.1050	-0.0117	0.5337	-8.0566	-15.6860	-25.5737	-3.9880	1.0657	76.8823	50.2300 
463.777	0.0918	0.0356	0.5347	-7.9346	4.9438	-20.6299	-4.0430	0.9833	76.6296	50.0800 
463.792	0.0508	0.0732	0.5933	-6.7139	15.0757	-10.8032	-4.0540	1.0602	76.4374	50.1800 
463.824	0.0303	0.0947	0.6836	-4.6387	14.9536	-0.1221	-4.0375	1.1810	76.3385	50.0400 
463.824	0.0244	0.1172	0.7412	-2.4414	7.9346	12.8174	-3.9880	1.2634	76.3550	50.2800 
463.824	0.0405	0.0972	0.7739	-1.2817	-2.2583	25.6348	-3.9331	1.2469	76.5198	50.2800 
463.824	0.0601	0.0527	0.7686	-0.1831	-12.2681	35.8887	-3.8782	1.1371	76.8054	50.2800 
463.824	0.0664	-0.0210	0.7319	-0.0610	-22.3999	42.2363	-3.8507	0.9283	77.2009	50.0800 
463.824	0.0571	-0.1318	0.6499	-0.4272	-27.2827	43.1519	-3.8782	0.6592	77.6569	49.9900 
463.824	0.0122	-0.2139	0.5708	-1.5869	-27.4048	39.4287	-3.9716	0.3845	78.1348	50.0400 
463.824	-0.0439	-0.2617	0.4858	-2.2583	-21.1182	31.6162	-4.1309	0.1703	78.5907	50.2300 
463.855	-0.0889	-0.2822	0.4346	-1.2817	-10.6812	23.9258	-4.3176	0.0714	79.0082	50.1800 
463.855	-0.1143	-0.2808	0.4561	-0.3052	1.0376	18.1274	-4.4934	0.0989	79.3597	50.0400 
463.855	-0.1509	-0.2466	0.5293	0.8545	6.0425	16.2964	-4.6307	0.2252	79.6399	50.1800 
463.870	-0.1934	-0.2095	0.5718	1.4648	1.5259	18.1274	-4.7186	0.3571	79.8871	50.0800 
463.886	-0.2192	-0.1543	0.5571	0.5493	-6.8970	21.3623	-4.7845	0.4449	80.1233	49.9900 
463.886	-0.2529	-0.0957	0.4536	-0.0610	-14.4653	25.2075	-4.8175	0.4944	80.3375	50.1800 
463.886	-0.2363	-0.0293	0.3218	-0.0610	-16.9678	28.6865	-4.7736	0.5438	80.4584	49.8900 
463.917	-0.1826	0.0801	0.2051	1.8921	-15.5029	31.6772	-4.5703	0.5658	80.4529	50.0800 
463.917	-0.1030	0.3457	0.1089	6.9580	-9.5215	37.7808	-4.1309	0.4779	80.5573	50.0400 
463.948	-0.0264	0.4814	0.0776	7.3242	4.4556	63.5986	-3.5980	0.3955	80.9583	50.0400 
463.948	-0.0532	0.2881	0.2969	-12.3291	27.2217	71.2280	-3.3234	0.5713	81.4526	50.1800 
463.980	-0.1729	-0.0298	0.6567	-30.7617	43.7622	54.2603	-3.5156	1.0657	81.8976	50.0800 
463.980	-0.2534	-0.1890	1.0728	-37.9639	64.5752	19.3481	-3.8892	1.7468	82.0953	50.2300 
464.012	-0.3755	-0.3521	1.5044	-50.7202	86.7310	-12.1460	-4.4275	2.6147	81.9690	50.2300 
464.012	-0.3618	-0.3569	2.0415	-33.9355	113.1592	-23.5596	-4.8834	3.7134	81.6394	50.0800 
464.012	-0.1807	-0.4595	2.6963	6.2256	127.2583	-23.6816	-4.9768	4.9493	81.2769	50.0400 
464.012	-0.2339	-0.2515	3.2295	42.2974	70.2515	-22.6440	-4.6692	5.8228	80.9143	50.3700 
464.012	-0.2905	0.0073	3.0571	46.0815	-49.0723	-0.8545	-4.1858	5.6250	80.7880	50.3700 
464.043	-0.1670	0.1206	2.2759	34.2407	-113.8306	24.2920	-3.7518	4.5978	80.9583	50.2300 
464.043	0.0278	0.2275	1.6050	16.9678	-102.2339	39.9780	-3.4497	3.5046	81.2988	50.3700 
464.043	0.1860	0.2100	1.3218	0.0610	-60.4248	44.7998	-3.3179	2.7521	81.6888	50.2800 
464.043	0.3130	0.1675	1.4028	-10.4980	-18.2495	42.2363	-3.3289	2.4060	82.0624	50.0400 
464.074	0.3345	-0.0142	1.7012	-8.2397	10.3760	34.3628	-3.3948	2.3895	82.3645	50.4200 
464.074	0.2998	-0.1099	1.9092	3.7842	2.3193	29.1748	-3.3783	2.4005	82.6227	50.2800 
464.074	0.2729	-0.1616	1.7871	13.1226	-25.0854	22.9492	-3.2684	2.1698	82.8424	50.2800 
464.074	0.2246	-0.2349	1.4883	16.4185	-43.6401	12.1460	-3.1366	1.7139	82.9907	50.2300 
464.105	0.1743	-0.2637	1.2002	16.9678	-46.7529	0.1831	-3.0157	1.1920	83.0347	50.2300 
464.105	0.1665	-0.2251	0.9575	15.3809	-40.1611	-5.5542	-2.9169	0.7031	83.0127	50.1800 
464.136	0.1665	-0.1489	0.7896	14.4653	-25.0244	-7.9956	-2.8235	0.3406	82.9468	50.0800 
464.152	0.1685	-0.1152	0.7437	14.0381	-10.2539	-9.0942	-2.7301	0.1263	82.8534	50.1800 
464.152	0.1597	-0.0762	0.7437	13.4277	-3.1128	-8.9722	-2.6147	0.0055	82.7380	50.3700 
464.152	0.1387	-0.0732	0.7256	11.8408	-2.5635	-8.0566	-2.5104	-0.0824	82.6282	50.2300 
464.152	0.1206	-0.0771	0.7114	9.8877	-5.9204	-6.8970	-2.4335	-0.1923	82.5348	50.1800 
464.183	0.1274	-0.0776	0.6758	7.8125	-11.4746	-7.8125	-2.3730	-0.3571	82.4414	50.0800 
464.183	0.1343	-0.0703	0.6343	4.8828	-16.9067	-11.5967	-2.3401	-0.5823	82.3206	50.1800 
464.215	0.1602	-0.0806	0.5908	0.5493	-21.6675	-18.7988	-2.3511	-0.8734	82.1448	50.2300 
464.215	0.1772	-0.0674	0.5190	-4.5166	-25.5127	-25.5127	-2.4060	-1.2305	81.9086	50.0800 
464.215	0.1660	-0.0483	0.4067	-9.3384	-24.7803	-33.0200	-2.5104	-1.6150	81.5955	50.2300 
464.215	0.1563	-0.0010	0.3271	-12.2681	-19.4702	-41.8701	-2.6147	-1.9775	81.1890	50.2300 
464.215	0.1646	0.0537	0.2808	-13.0615	-11.5356	-49.3164	-2.6807	-2.2961	80.6726	50.3700 
464.246	0.1777	0.1123	0.2817	-12.2070	-5.6763	-52.0630	-2.6862	-2.5763	80.0958	50.0800 
464.261	0.1646	0.1636	0.3008	-11.1084	-0.5493	-47.3633	-2.6312	-2.7850	79.5245	50.0400 
464.277	0.1294	0.1694	0.3257	-10.4370	6.1035	-40.1611	-2.5653	-2.9004	79.0082	50.2800 
464.277	0.0532	0.1782	0.3979	-10.7422	12.9395	-34.6069	-2.5049	-2.8784	78.5303	50.1800 
464.277	-0.0151	0.2495	0.4917	-11.2915	17.3950	-28.6865	-2.4280	-2.7521	78.0743	50.0400 
464.292	-0.0449	0.3130	0.6284	-10.5591	20.2026	-19.4092	-2.3456	-2.5653	77.6898	50.3700 
464.308	-0.0610	0.3281	0.7495	-8.1787	17.0288	-6.8970	-2.2687	-2.3840	77.4261	50.2300 
464.324	-0.0728	0.2729	0.8252	-4.3945	6.8359	3.4790	-2.1863	-2.2742	77.2943	50.2300 
464.324	-0.0757	0.1689	0.8110	-0.7324	-5.7983	7.6904	-2.1039	-2.2632	77.2449	50.3700 
464.324	-0.0264	-0.0073	0.7651	3.2959	-18.5547	6.5308	-2.0490	-2.3840	77.2559	50.2800 
464.339	-0.0508	-0.6719	0.5127	-1.0986	-14.8926	3.1738	-2.2632	-2.6422	77.5195	50.3700 
464.355	-0.6655	-0.5913	0.3701	3.4790	42.2974	-20.3247	-2.6202	-2.4280	77.7887	50.4200 
464.370	-0.6206	-0.5410	0.8574	26.7944	86.7310	-46.5088	-2.6752	-1.6150	77.7557	50.0800 
464.417	-0.5938	-0.3696	1.3989	35.8887	100.0977	-33.5083	-2.4280	-0.5273	77.3932	50.1800 
464.417	-0.7905	-0.2871	1.7979	52.3071	120.1172	-5.6152	-1.9775	0.7471	77.1899	50.1800 
464.417	-0.9238	-0.2720	2.2363	55.1147	122.0703	1.0376	-1.4502	2.1039	77.0911	50.6100 
464.417	-0.8628	-0.1816	2.6206	37.9028	89.5386	7.9956	-1.0217	3.1970	77.0581	50.2300 
464.417	-0.8916	-0.1836	2.7773	17.1509	38.5132	12.8784	-0.8075	3.8013	77.1021	49.9900 
464.417	-0.8906	-0.2324	2.6602	10.0708	-13.3667	7.1411	-0.7031	3.8782	77.1295	50.1800 
464.433	-0.6528	-0.2622	2.3467	15.8691	-43.4570	-8.3008	-0.5933	3.5760	77.0416	50.4200 
464.433	-0.2324	-0.1094	2.0020	20.0195	-45.5322	-18.9209	-0.4340	3.1476	76.8384	50.3700 
464.433	0.0894	0.0649	1.6934	20.1416	-39.5508	-17.8833	-0.2362	2.7191	76.6077	50.2800 
464.480	0.1782	0.1694	1.3706	16.9678	-31.4331	-12.0850	-0.0275	2.3236	76.4209	50.2300 
464.480	0.1294	0.2500	1.0620	7.5684	-14.2212	-4.5776	0.1318	2.0654	76.2836	50.2800 
464.512	0.0874	0.1748	0.9263	-3.4790	13.0005	-0.6714	0.1868	2.0764	76.1957	50.5200 
464.512	0.0557	0.1079	0.9585	-15.4419	31.1279	-1.4648	0.1044	2.3126	76.1188	50.3700 
464.512	0.0029	0.0034	1.0566	-23.4985	44.4946	-5.7373	-0.1044	2.7081	76.0364	50.0800 
464.512	-0.0347	-0.0273	1.1826	-28.0762	43.4570	-7.2632	-0.3845	3.1421	75.9320	50.0800 
464.512	-0.0566	-0.0811	1.2354	-29.2358	35.3394	-8.1787	-0.6976	3.5101	75.8221	50.0800 
464.543	-0.0845	-0.1382	1.2314	-27.8931	25.6958	-5.5542	-1.0107	3.7903	75.7452	50.0800 
464.589	-0.1084	-0.2251	1.2188	-23.8037	14.0991	-4.6997	-1.3184	3.9661	75.7068	50.0800 
464.605	-0.1079	-0.2363	1.1240	-19.7754	-1.7700	-3.3569	-1.5875	3.9880	75.6903	50.2300 
464.605	-0.0889	-0.2554	0.9385	-17.3340	-12.1460	-2.5024	-1.8457	3.8947	75.7068	50.3700 
464.636	-0.0815	-0.2163	0.7368	-15.8691	-12.9395	-3.1128	-2.0984	3.7628	75.7343	50.4200 
464.636	-0.0688	-0.1558	0.5845	-14.9536	-10.1929	-5.9814	-2.3346	3.6639	75.7343	50.0800 
464.636	-0.0410	-0.0938	0.4814	-15.0146	-6.1035	-7.9346	-2.5433	3.5980	75.6848	50.3700 
464.636	-0.0137	-0.0176	0.3989	-14.0991	-0.1831	-7.4463	-2.7081	3.5706	75.5914	50.0800 
464.636	-0.0239	0.0400	0.3638	-11.8408	5.5542	-4.6387	-2.8070	3.6090	75.4871	50.1800 
464.636	-0.0581	0.0820	0.3491	-9.7656	10.6812	1.2817	-2.8125	3.7134	75.3717	50.2300 
464.636	-0.0762	0.1201	0.3608	-8.8501	14.8926	6.7749	-2.7740	3.8727	75.2783	50.3700 
464.636	-0.0742	0.1421	0.4141	-9.2163	18.1885	13.3667	-2.7246	4.0649	75.2454	50.2300 
464.652	-0.0430	0.1382	0.5010	-9.0942	17.7612	21.1792	-2.6862	4.2462	75.3168	50.3700 
464.652	-0.0088	0.0991	0.6001	-8.9111	16.1133	28.5645	-2.6807	4.4000	75.4926	50.5200 
464.699	0.0474	0.0386	0.6943	-9.1553	12.4512	35.0952	-2.7026	4.5044	75.7727	50.1800 
464.714	0.0938	-0.0518	0.7637	-9.2773	6.5308	39.0625	-2.7631	4.5319	76.1353	50.3700 
464.714	0.1260	-0.1333	0.8213	-9.8877	0.4883	40.6494	-2.8564	4.4934	76.5472	50.2300 
464.714	0.1484	-0.2021	0.8657	-9.7656	-3.2349	39.9780	-2.9773	4.4055	76.9757	50.1800 
464.730	0.1655	-0.2764	0.9170	-9.7046	-4.3335	37.1094	-3.1201	4.2957	77.3932	50.2300 
464.730	0.1938	-0.3428	0.9878	-9.0942	-3.6621	32.4097	-3.2684	4.1803	77.7832	50.0800 
464.730	0.2227	-0.4185	1.0850	-5.8594	-0.4883	25.5127	-3.4113	4.0814	78.1128	50.1800 
464.730	0.2427	-0.4561	1.1777	-5.1880	-1.6479	15.9302	-3.5486	3.9825	78.3490	50.1800 
464.745	0.2090	-0.4941	1.2529	-4.3945	0.9766	3.6621	-3.6914	3.9001	78.4753	50.5200 
464.761	0.1475	-0.4912	1.3584	-4.2114	1.8311	-9.2163	-3.8287	3.8452	78.4644	50.3700 
464.761	0.0991	-0.4531	1.4653	-3.7842	-2.8076	-22.2168	-3.9606	3.7628	78.3215	50.0800 
464.761	0.0576	-0.3945	1.5513	-4.9438	-15.0146	-33.7524	-4.0924	3.5870	78.0524	50.0800 
464.792	0.0674	-0.3218	1.5479	-8.4839	-32.8369	-41.8701	-4.2407	3.2410	77.6898	50.3700 
464.792	0.1025	-0.2666	1.4390	-11.7188	-44.7388	-45.5322	-4.4110	2.7411	77.2888	50.2300 
464.824	0.1528	-0.1758	1.3071	-11.9629	-45.8374	-44.4946	-4.5703	2.1973	76.8878	50.2300 
464.824	0.2104	0.0112	1.1958	-10.1318	-40.8936	-36.1938	-4.6802	1.6754	76.5198	50.3700 
464.824	0.2368	0.1577	1.1162	-8.8501	-25.8179	-20.5688	-4.7131	1.2689	76.2616	50.2800 
464.855	0.1479	0.2075	1.1250	-10.9253	-5.0659	-1.8921	-4.7296	1.0931	76.1462	50.3700 
464.855	-0.0317	0.1167	1.1992	-20.0195	13.7329	8.4229	-4.8340	1.1700	76.1407	50.2800 
464.855	-0.2417	-0.0283	1.3281	-28.8696	23.9868	8.9722	-5.0702	1.4392	76.1627	50.1800 
464.870	-0.5186	-0.1313	1.3682	-33.9966	19.9585	6.1035	-5.3833	1.7633	76.1572	50.2800 
464.870	-0.7139	-0.1758	1.2817	-34.8511	7.8125	3.5400	-5.7239	2.0270	76.1078	50.2800 
464.902	-0.7661	-0.1675	1.1372	-31.7383	-7.5073	1.8311	-6.0370	2.1698	76.0254	50.5200 
464.902	-0.6655	-0.0947	0.9644	-27.5269	-12.2070	3.4790	-6.2677	2.2412	75.8990	50.0800 
464.917	-0.5083	-0.0581	0.8687	-24.2920	-2.3804	7.0801	-6.4655	2.3566	75.8167	50.2300 
464.917	-0.3657	-0.0088	0.9043	-22.3999	15.6860	10.8032	-6.6357	2.5983	75.7782	50.3700 
464.917	-0.2524	0.0117	1.0278	-20.0806	30.4565	13.3667	-6.7896	2.9553	75.7837	50.0800 
464.964	-0.2578	0.0503	1.1973	-15.9912	35.4004	14.4043	-6.8994	3.3673	75.7947	50.1800 
464.995	-0.2847	0.1040	1.3071	-6.4697	32.8979	16.4795	-6.9104	3.7683	75.8112	50.1800 
464.995	-0.2651	0.1016	1.3857	2.6245	19.4092	19.0430	-6.8225	4.0540	75.8661	50.1800 
464.995	-0.2373	0.0786	1.3857	11.7188	2.5024	25.0854	-6.6467	4.1803	76.0034	50.3700 
465.027	-0.1748	0.0503	1.3198	18.9209	-13.0615	29.1138	-6.3940	4.1309	76.2177	50.5600 
465.027	-0.1265	0.0078	1.1865	23.2544	-20.2637	31.5552	-6.1084	3.9880	76.4758	50.2300 
465.027	-0.0845	-0.0610	1.0688	26.3672	-19.4702	32.7148	-5.8063	3.8287	76.7725	50.2800 
465.027	-0.0542	-0.1206	0.9971	28.6865	-13.7329	33.4473	-5.5042	3.7079	77.0911	50.3700 
465.027	-0.0581	-0.1641	0.9395	30.5786	-6.7139	33.0811	-5.2020	3.6530	77.4207	50.5600 
465.027	-0.0786	-0.1802	0.9448	30.9448	-4.7607	31.9214	-4.9054	3.6365	77.7448	50.2300 
465.027	-0.0884	-0.1782	0.9385	35.5835	-1.7090	31.9214	-4.5868	3.6365	78.0579	50.2300 
465.074	-0.0752	-0.1826	0.9907	36.6211	-5.0659	28.3813	-4.2407	3.6365	78.3490	50.5200 
465.074	-0.0698	-0.1763	0.9146	35.2173	-10.2539	25.5737	-3.9111	3.5651	78.6127	50.1800 
465.105	-0.0420	-0.1416	0.8867	33.7524	-12.8174	19.1650	-3.5925	3.4552	78.8159	50.2300 
465.105	-0.0254	-0.1118	0.8408	31.2500	-16.0522	13.2446	-3.2904	3.3069	78.9478	50.4200 
465.105	0.0127	-0.1206	0.8184	30.2734	-18.5547	5.5542	-3.0103	3.1146	79.0137	50.2300 
465.105	0.0151	-0.1016	0.7847	28.3813	-20.6299	-1.7700	-2.7576	2.8894	79.0027	50.1800 
465.105	-0.0024	-0.0791	0.7256	25.3296	-22.0947	-5.8594	-2.5214	2.6532	78.9368	50.0400 
465.152	-0.0166	-0.0557	0.6826	22.5220	-21.9116	-8.0566	-2.3071	2.4225	78.8324	50.3700 
465.152	-0.0195	-0.0396	0.6689	19.6533	-20.2026	-10.6201	-2.1204	2.2083	78.7006	50.5200 
465.152	-0.0278	-0.0176	0.6572	17.2729	-17.3950	-12.5122	-1.9446	2.0215	78.5303	50.1800 
465.152	-0.0269	0.0229	0.6729	15.1367	-14.6484	-13.7329	-1.7798	1.8677	78.3380	50.2800 
465.152	-0.0215	0.0796	0.6987	12.2070	-12.1460	-12.9395	-1.6095	1.7303	78.1238	50.1800 
465.152	-0.0210	0.1021	0.7393	10.0098	-10.2539	-10.1929	-1.4502	1.6150	77.9260	50.2800 
465.167	-0.0288	0.1069	0.8110	7.6294	-9.7046	-8.1787	-1.3184	1.5051	77.7502	50.2800 
465.199	-0.0283	0.0903	0.8828	6.0425	-11.1694	-5.7983	-1.2085	1.3953	77.6019	50.3700 
465.199	-0.0278	0.0684	0.9692	4.6387	-15.1367	-4.2114	-1.1261	1.2524	77.4866	50.3700 
465.230	-0.0161	0.0352	1.0239	3.4790	-19.7144	-2.1362	-1.0712	1.0657	77.3987	50.2800 
465.230	0.0054	0.0093	1.0625	2.1973	-26.6113	-0.3662	-1.0382	0.8130	77.3438	50.3700 
465.230	0.0391	-0.0146	1.0972	1.7700	-33.9355	1.2207	-1.0162	0.4779	77.3163	50.2800 
465.230	0.0796	-0.0532	1.0815	0.6714	-40.8325	-0.9155	-1.0107	0.0604	77.2888	50.2800 
465.277	0.1323	-0.1016	1.0034	-1.1597	-44.8608	-8.6060	-1.0437	-0.4120	77.2174	50.2300 
465.277	0.1914	-0.1538	0.9072	-3.6011	-41.0156	-19.3481	-1.1151	-0.9009	77.0691	50.0800 
465.292	0.2388	-0.1865	0.8228	-5.9204	-29.7241	-29.9072	-1.2250	-1.3184	76.8219	50.4200 
465.292	0.2671	-0.1953	0.8359	-7.6294	-13.0005	-38.3301	-1.3513	-1.5930	76.4923	50.1800 
465.292	0.2729	-0.1890	0.9175	-7.8125	1.4038	-43.8843	-1.4777	-1.7194	76.0968	50.2300 
465.308	0.2661	-0.1523	1.0605	-6.7749	9.3994	-47.6685	-1.5820	-1.7303	75.6409	50.2800 
465.324	0.2285	-0.0654	1.1880	-4.3335	11.2915	-47.0581	-1.6315	-1.6919	75.1630	50.2800 
465.324	0.1396	0.0605	1.2676	-0.9155	8.1177	-42.2363	-1.6260	-1.6479	74.7015	50.2300 
465.324	0.0674	0.1895	1.2949	1.9531	5.0659	-33.7524	-1.5491	-1.6150	74.2841	50.1800 
465.339	0.0264	0.2915	1.3291	3.2349	2.6855	-23.6206	-1.4337	-1.5985	73.9435	50.3700 
465.339	0.0596	0.3608	1.3477	4.2725	-3.5400	-12.7563	-1.2964	-1.6315	73.7018	50.1800 
465.355	0.1587	0.3770	1.3447	5.4321	-12.3901	-3.8452	-1.1426	-1.7688	73.5645	50.2800 
465.371	0.2646	0.3247	1.3042	6.4087	-22.5220	2.0142	-0.9943	-2.0270	73.5095	50.0800 
465.371	0.3345	0.1504	1.2280	6.4697	-30.1514	5.8594	-0.8789	-2.3895	73.5315	50.4200 
465.371	0.2852	-0.0400	1.0830	5.1270	-24.5972	5.7373	-0.8185	-2.7301	73.5864	50.1800 
465.402	0.0596	-0.1274	0.9561	2.9297	4.6997	0.9155	-0.8185	-2.8015	73.6194	50.5600 
465.433	-0.2192	-0.1401	1.0630	8.0566	39.5508	-5.0049	-0.7965	-2.4170	73.5754	50.2300 
465.449	-0.4541	-0.1875	1.3076	18.4937	52.5513	-8.0566	-0.6702	-1.7908	73.4711	50.3700 
465.449	-0.6299	-0.2505	1.4302	25.5127	39.6118	-11.1694	-0.4724	-1.2085	73.3392	50.2800 
465.449	-0.7144	-0.1558	1.3716	31.4941	17.2119	-12.2681	-0.1978	-0.8130	73.1415	50.2300 
465.449	-0.6523	-0.0938	1.2734	34.3628	-4.9438	-7.9346	0.1428	-0.6427	72.9437	50.2300 
465.480	-0.5273	-0.1050	1.1118	33.8745	-19.1650	-1.3428	0.4724	-0.6427	72.8229	50.2300 
465.480	-0.4072	-0.1494	0.9692	32.1655	-19.1650	2.2583	0.7635	-0.6976	72.7899	50.2800 
465.480	-0.3042	-0.2012	0.9175	29.2358	-10.8032	1.9531	0.9888	-0.7086	72.8229	50.3700 
465.496	-0.2227	-0.1909	0.9683	24.5972	-0.9766	-1.5259	1.1700	-0.6537	72.8394	50.2300 
465.511	-0.1528	-0.1812	1.0337	17.9443	3.6011	-5.3711	1.3019	-0.5658	72.8174	50.2300 
465.511	-0.1226	-0.1851	1.0986	9.3994	2.6245	-10.2539	1.3513	-0.4889	72.7460	50.1800 
465.511	-0.1064	-0.1606	1.0889	2.4414	-2.9907	-17.1509	1.3293	-0.4669	72.6141	50.4200 
465.527	-0.1221	-0.0947	1.0225	-3.4790	-6.9580	-23.9868	1.2689	-0.4834	72.3834	50.2300 
465.527	-0.1357	-0.0498	0.9214	-8.4229	-7.3242	-29.7852	1.1700	-0.5054	72.0868	50.2300 
465.542	-0.1313	-0.0308	0.8638	-13.3057	-6.7139	-33.5083	1.0327	-0.5109	71.7407	50.1800 
465.574	-0.1323	0.0225	0.8047	-19.0430	-3.5400	-31.7383	0.8624	-0.4944	71.3727	50.2300 
465.574	-0.1440	0.0835	0.7666	-23.7427	5.2490	-26.0620	0.6702	-0.4010	71.0376	50.3700 
465.574	-0.1558	0.1543	0.8086	-27.0996	12.5122	-19.3481	0.4724	-0.2252	70.7410	50.0800 
465.621	-0.1450	0.2178	0.8486	-29.8462	13.0615	-9.7656	0.2692	-0.0494	70.5157	50.1800 
465.621	-0.1387	0.2324	0.8887	-31.9214	11.1084	-0.4272	0.0494	0.1099	70.4004	50.3700 
465.652	-0.1421	0.2305	0.9028	-33.0200	5.3101	11.9629	-0.1758	0.2142	70.3894	50.1800 
465.652	-0.1284	0.1997	0.8921	-32.4097	2.1973	22.5220	-0.4175	0.2747	70.4938	50.2300 
465.652	-0.1045	0.1460	0.8936	-29.1138	-0.1221	31.2500	-0.6427	0.3186	70.7135	50.5200 
465.652	-0.0864	0.0977	0.9028	-26.3672	-2.5024	39.3677	-0.8624	0.3351	71.0266	50.3700 
465.652	-0.0674	0.0151	0.9268	-22.1558	-2.9907	49.5605	-1.0712	0.3351	71.4551	50.3700 
465.652	-0.0425	-0.0869	0.9526	-18.1885	-1.8311	57.0679	-1.2744	0.3351	72.0044	50.3700 
465.684	-0.0186	-0.1992	0.9673	-15.4419	-2.9297	59.5093	-1.4832	0.3296	72.6196	50.0400 
465.684	0.0088	-0.2935	0.9673	-14.0991	-5.1880	57.3730	-1.7084	0.2911	73.2568	50.2300 
465.684	0.0488	-0.3584	0.9536	-13.0005	-8.1787	51.5747	-1.9446	0.2087	73.8666	50.2800 
465.715	0.0938	-0.3823	0.9126	-12.4512	-11.1084	44.0674	-2.1863	0.0769	74.4159	50.2300 
465.746	0.1382	-0.3813	0.8794	-11.6577	-13.9160	34.9731	-2.4225	-0.0934	74.8718	50.0800 
465.746	0.1743	-0.3647	0.8413	-10.6201	-16.2964	25.5127	-2.6422	-0.3131	75.2399	50.2300 
465.746	0.1846	-0.3452	0.8022	-10.0098	-17.7612	15.6250	-2.8619	-0.5603	75.5035	50.1800 
465.746	0.1753	-0.3154	0.7617	-8.7891	-16.9067	5.4932	-3.0597	-0.8130	75.6683	50.3700 
465.746	0.1621	-0.2725	0.7417	-7.3853	-12.3291	-3.1738	-3.2355	-1.0272	75.7343	50.3700 
465.777	0.1572	-0.2129	0.7651	-5.2490	-7.4463	-9.3384	-3.3673	-1.1865	75.7068	50.2800 
465.792	0.1621	-0.1494	0.8271	-2.5024	-4.5776	-10.9253	-3.4442	-1.3019	75.6244	50.2300 
465.792	0.1660	-0.0713	0.8809	0.9766	-4.2114	-7.8735	-3.4607	-1.4063	75.5420	50.2800 
465.792	0.1646	-0.0151	0.9175	4.0283	-7.2632	-0.9155	-3.4167	-1.5216	75.4980	50.2800 
465.824	0.1362	0.0293	0.8989	5.9204	-11.9019	7.6904	-3.3398	-1.6699	75.5255	50.3700 
465.824	0.1025	0.0615	0.8657	7.7515	-13.3057	15.1367	-3.2300	-1.8292	75.6244	50.0400 
465.856	0.0806	0.0557	0.8228	7.5684	-10.4980	20.4468	-3.1201	-1.9611	75.7727	50.1800 
465.856	0.0898	0.0425	0.8276	5.3711	-5.7373	23.9868	-3.0322	-2.0435	75.9595	50.0800 
465.856	0.1367	-0.0176	0.8945	3.9063	0.6104	26.3062	-2.9828	-2.0764	76.1847	50.0800 
465.887	0.1328	-0.1177	0.9692	1.2817	3.2349	26.6113	-2.9883	-2.0709	76.4374	50.4200 
465.887	0.1006	-0.2407	1.0415	-2.2583	5.0049	24.9023	-3.0652	-2.0380	76.7065	50.1800 
465.887	0.0601	-0.3184	1.1133	-3.6011	5.1270	18.3716	-3.1750	-1.9885	76.9427	50.2800 
465.887	0.0459	-0.3540	1.1553	-3.7231	4.8218	9.2773	-3.2959	-1.9391	77.0966	50.4200 
465.918	0.0684	-0.3687	1.1890	-4.0283	3.3569	0.7935	-3.4222	-1.9116	77.1680	50.2300 
465.918	0.1084	-0.3643	1.1919	-5.1880	2.9907	-4.8218	-3.5486	-1.9061	77.1735	50.0400 
465.918	0.1621	-0.3315	1.2114	-5.2490	4.9438	-8.6060	-3.6749	-1.9006	77.1350	50.1800 
465.918	0.2275	-0.1987	1.2715	-5.3711	3.7842	-8.6670	-3.7683	-1.9061	77.0526	50.0800 
465.949	0.2461	-0.0166	1.3086	-4.2725	3.5400	-3.1738	-3.8068	-1.9336	76.9812	50.2800 
465.949	0.1787	0.1016	1.3428	-5.0049	8.7891	8.0566	-3.8123	-1.9006	76.9702	50.0800 
465.980	0.0356	0.0244	1.4180	-12.8174	18.1274	16.0522	-3.8837	-1.7413	77.0471	50.2300 
465.980	-0.1226	-0.1138	1.5410	-23.1934	24.5361	14.3433	-4.0924	-1.4722	77.1460	50.2300 
465.980	-0.2842	-0.1436	1.6162	-31.9214	21.0571	9.2163	-4.3890	-1.1810	77.1899	50.2800 
465.980	-0.4248	-0.1963	1.5249	-36.3159	12.6343	2.9297	-4.7516	-0.9393	77.1735	50.1800 
466.027	-0.5107	-0.2417	1.3784	-35.5835	2.5635	-2.4414	-5.1251	-0.7690	77.1130	50.2300 
466.042	-0.5542	-0.1626	1.2119	-31.3110	-10.0708	-4.9438	-5.4547	-0.6976	76.9977	50.2300 
466.074	-0.5459	-0.0259	1.0605	-24.4141	-19.3481	0.0000	-5.6689	-0.7196	76.8604	50.3700 
466.074	-0.4658	0.1313	0.9028	-20.5078	-25.0854	10.0098	-5.7678	-0.8130	76.7450	50.1800 
466.074	-0.3530	0.1895	0.7588	-22.7051	-17.9443	19.8975	-5.8447	-0.8844	76.7230	50.2800 
466.074	-0.2324	0.1934	0.7363	-26.4282	-4.7607	27.3438	-5.9491	-0.8569	76.7889	50.2300 
466.074	-0.1045	0.1982	0.8301	-28.3813	10.1318	31.9824	-6.1029	-0.7251	76.9427	50.2300 
466.074	-0.0376	0.1987	0.9868	-25.0244	20.5078	38.6963	-6.2622	-0.4999	77.1680	50.1800 
466.106	-0.0293	0.1431	1.1494	-17.7002	22.3389	46.7529	-6.3721	-0.2252	77.4921	50.3700 
466.106	-0.0581	0.0591	1.2705	-7.9346	14.4653	52.3682	-6.4160	0.0000	77.8986	50.2800 
466.106	-0.1089	-0.0557	1.3237	0.8545	0.0610	52.9175	-6.3940	0.1208	78.3600	50.1800 
466.106	-0.1519	-0.1455	1.3071	7.6294	-15.3198	49.7437	-6.3226	0.0989	78.8269	50.2800 
466.137	-0.1396	-0.2168	1.2134	13.6108	-26.3062	43.6401	-6.2183	-0.0439	79.2773	50.2300 
466.137	-0.0879	-0.2935	1.0845	17.7002	-30.1514	35.6445	-6.0974	-0.2692	79.6838	50.3700 
466.137	-0.0503	-0.3438	0.9326	21.9727	-28.5034	28.9307	-5.9711	-0.5109	80.0574	50.2800 
466.137	-0.0503	-0.3667	0.7993	25.3906	-22.7661	22.5220	-5.8392	-0.7141	80.3870	50.2300 
466.168	-0.0493	-0.3813	0.6919	26.3062	-16.9678	16.7847	-5.7129	-0.8734	80.6836	50.1800 
466.168	-0.0347	-0.3872	0.6421	27.7710	-7.2021	11.2915	-5.5975	-0.9613	80.9308	50.0800 
466.168	-0.0200	-0.3418	0.6582	26.9165	-0.5493	4.6387	-5.4602	-0.9723	81.0791	50.2300 
466.199	-0.0049	-0.3237	0.6675	25.6348	4.7607	-2.1362	-5.3284	-0.9393	81.1505	50.1800 
466.199	-0.0059	-0.3125	0.6821	23.4985	9.6436	-10.3149	-5.2020	-0.8679	81.1285	50.2300 
466.246	-0.0156	-0.2847	0.7300	24.4751	16.6016	-22.7661	-5.0647	-0.7361	80.9692	50.2800 
466.246	-0.0234	-0.2168	0.8057	25.4517	19.7754	-35.2783	-4.8779	-0.5603	80.6506	50.3700 
466.261	-0.0176	-0.1416	0.8848	26.3672	20.2026	-43.0908	-4.6472	-0.3790	80.2002	50.2300 
466.261	-0.0029	-0.0391	0.9761	26.6724	15.8691	-48.6450	-4.3726	-0.2417	79.6509	50.3700 
466.261	0.0151	0.0820	1.0059	25.2075	6.7139	-48.5840	-4.0759	-0.1923	79.0686	50.2300 
466.293	0.0342	0.1914	1.0005	23.0713	-0.1221	-44.0063	-3.7573	-0.2307	78.5138	50.2800 
466.293	0.0679	0.2700	0.9854	20.5688	-5.5542	-35.5835	-3.4442	-0.3351	78.0194	50.3700 
466.293	0.0884	0.2983	0.9736	18.0054	-8.4839	-27.4048	-3.1421	-0.4779	77.6129	50.2300 
466.293	0.0991	0.2861	0.9663	15.1978	-10.6201	-20.2026	-2.8729	-0.6427	77.2833	50.1800 
466.324	0.0991	0.2480	0.9624	11.9019	-14.3433	-14.4043	-2.6422	-0.8240	77.0251	50.2800 
466.324	0.1143	0.1855	0.9424	8.6060	-19.5923	-8.7280	-2.4664	-1.0602	76.8384	50.4200 
466.324	0.1191	0.1084	0.9243	5.7983	-23.8647	-3.0518	-2.3456	-1.3348	76.7285	50.0800 
466.339	0.1299	0.0195	0.9053	3.6621	-26.9775	0.4272	-2.2742	-1.6370	76.6846	50.1800 
466.339	0.1357	-0.0342	0.8691	2.1362	-28.4424	2.9907	-2.2522	-1.9556	76.6901	50.2800 
466.339	0.1421	-0.0781	0.8325	0.1831	-25.9399	3.1128	-2.2577	-2.2687	76.7175	50.3700 
466.339	0.1289	-0.1152	0.8013	-2.0142	-21.3013	0.5493	-2.3071	-2.5323	76.7395	50.2300 
466.355	0.1299	-0.1470	0.7793	-4.5776	-14.5874	-3.7842	-2.3895	-2.7356	76.7340	50.2300 
466.386	0.1401	-0.1748	0.7808	-6.8359	-6.5918	-8.8501	-2.5049	-2.8674	76.6791	50.1800 
466.386	0.1548	-0.1895	0.8262	-8.7280	1.3428	-14.7095	-2.6422	-2.9279	76.5747	50.1800 
466.386	0.1758	-0.1743	0.8970	-9.5825	7.6904	-21.0571	-2.7795	-2.9224	76.3989	50.1800 
466.402	0.1802	-0.1318	0.9844	-9.2773	11.8408	-25.8789	-2.8894	-2.8729	76.1517	50.2800 
466.402	0.1621	-0.0713	1.0840	-8.3618	13.9771	-28.9307	-2.9773	-2.7850	75.8496	50.1800 
466.402	0.1240	0.0122	1.1968	-6.4087	13.2446	-27.5269	-3.0157	-2.6917	75.5310	50.1800 
466.449	0.0576	0.0996	1.2788	-2.3804	8.3618	-22.2168	-2.9993	-2.6093	75.2344	50.0800 
466.449	0.0146	0.1147	1.3062	0.5493	3.5400	-15.0146	-2.9443	-2.5708	74.9982	50.2300 
466.480	-0.0112	0.1328	1.3101	2.3193	0.4272	-7.9956	-2.8729	-2.5543	74.8334	50.3700 
466.496	0.0269	0.1465	1.3315	4.4556	-3.3569	-1.8311	-2.7795	-2.5708	74.7345	50.2300 
466.496	0.1030	0.1426	1.3281	7.3853	-9.3384	3.7842	-2.6587	-2.6587	74.7015	50.3700 
466.496	0.1963	0.0596	1.3237	9.0942	-17.1509	7.3853	-2.5378	-2.8345	74.7290	50.0400 
466.496	0.2412	-0.0464	1.2690	9.4604	-20.5688	6.8970	-2.4390	-3.0762	74.7949	49.9900 
466.511	0.2183	-0.1714	1.2153	9.9487	-13.9160	1.4648	-2.3676	-3.2849	74.8444	50.1800 
466.527	0.0811	-0.2065	1.2046	12.8174	1.2817	-7.3242	-2.2852	-3.3289	74.8114	50.3700 
466.527	-0.0771	-0.2070	1.2808	16.7847	14.5874	-14.7705	-2.1643	-3.1860	74.6851	50.2300 
466.543	-0.2456	-0.2080	1.3389	19.4702	12.6953	-18.4937	-2.0050	-2.9828	74.4983	50.2300 
466.543	-0.3989	-0.2446	1.2554	20.2026	3.2959	-22.3389	-1.8402	-2.8180	74.2841	50.0800 
466.543	-0.4727	-0.2485	1.1133	20.9351	-5.4321	-28.1982	-1.6809	-2.7136	74.0149	50.3700 
466.558	-0.4692	-0.2466	0.9946	22.5830	-11.7188	-32.5928	-1.5106	-2.6697	73.7073	50.0800 
466.574	-0.3916	-0.2837	0.9175	23.7427	-17.9443	-35.2783	-1.3568	-2.6917	73.4106	50.1800 
466.589	-0.3022	-0.2368	0.8120	25.6348	-14.9536	-35.4004	-1.1865	-2.7356	73.1085	50.4200 
466.589	-0.2388	-0.2202	0.8130	28.4424	-0.9766	-35.5835	-0.9833	-2.6807	72.8009	50.1800 
466.589	-0.1807	-0.2246	1.0088	29.8462	9.7656	-36.3159	-0.7416	-2.5269	72.4713	50.2300 
466.621	-0.1572	-0.1948	1.2480	25.9399	7.4463	-34.1797	-0.5109	-2.3840	72.1362	50.0800 
466.621	-0.1553	-0.1699	1.3696	19.5313	-3.6621	-30.4565	-0.3241	-2.3401	71.8231	50.2800 
466.621	-0.1406	-0.1494	1.3545	10.4980	-13.7939	-30.5176	-0.2252	-2.4060	71.5210	50.0800 
466.652	-0.1440	-0.0566	1.2324	-0.5493	-24.1699	-31.9824	-0.2087	-2.5653	71.1914	50.1800 
466.683	-0.1343	0.0000	1.0474	-8.6060	-28.0151	-32.5317	-0.2582	-2.7795	70.8289	50.2300 
466.699	-0.0913	0.0508	0.9077	-12.8174	-28.0151	-34.2407	-0.3461	-3.0103	70.4443	50.3700 
466.699	-0.0557	0.1011	0.7979	-15.9302	-23.4985	-31.4331	-0.4340	-3.2190	70.0598	50.2300 
466.699	-0.0547	0.1699	0.7485	-18.6157	-17.2729	-23.8037	-0.5273	-3.3783	69.7247	50.2800 
466.731	-0.0732	0.2393	0.7417	-19.1040	-8.8501	-14.4653	-0.5933	-3.4497	69.4556	50.0800 
466.731	-0.1006	0.2920	0.8130	-21.1182	-5.1270	-1.8311	-0.6647	-3.4717	69.2908	50.1800 
466.761	-0.1177	0.2705	0.8521	-23.2544	-2.8687	11.3525	-0.7745	-3.4607	69.2578	50.0400 
466.761	-0.1274	0.2388	0.9292	-25.3296	-1.4648	20.0195	-0.9338	-3.4167	69.3347	50.4200 
466.761	-0.1138	0.1929	0.9673	-26.6724	-4.0894	27.2217	-1.1261	-3.3948	69.4995	50.0400 
466.777	-0.0747	0.1499	0.9824	-25.9399	-8.3008	34.6069	-1.3348	-3.4167	69.7522	50.2300 
466.777	-0.0493	0.0713	0.9868	-23.5596	-11.6577	42.1143	-1.5546	-3.4827	70.1038	50.0800 
466.777	-0.0386	-0.0010	0.9858	-20.2637	-14.2822	49.0112	-1.7798	-3.5706	70.5487	50.1800 
466.777	-0.0420	-0.1055	0.9702	-18.1274	-15.9912	53.0396	-2.0105	-3.6694	71.0706	50.3700 
466.777	-0.0454	-0.2134	0.9678	-17.2119	-17.5781	54.0771	-2.2742	-3.7848	71.6473	50.0800 
466.777	-0.0205	-0.3359	0.9590	-17.4561	-18.6768	49.8657	-2.5763	-3.9276	72.2406	50.0400 
466.793	0.0093	-0.4004	0.9556	-17.8223	-20.0806	42.1753	-2.9059	-4.0924	72.7844	50.0400 
466.808	0.0586	-0.3994	0.9619	-16.4795	-24.5361	34.7900	-3.2190	-4.3066	73.2513	50.2300 
466.808	0.1304	-0.3657	0.9482	-14.8926	-32.3486	30.3345	-3.5046	-4.6143	73.6578	50.0400 
466.824	0.1738	-0.2988	0.8945	-13.0005	-39.6729	28.2593	-3.7518	-5.0153	74.0314	50.1800 
466.855	0.1792	-0.2568	0.8179	-11.0474	-42.9077	26.4893	-3.9771	-5.4657	74.3829	50.0800 
466.855	0.1655	-0.2178	0.7451	-8.0566	-40.5273	23.1323	-4.1638	-5.8997	74.7070	50.2300 
466.887	0.1470	-0.1777	0.7153	-4.3335	-33.9355	18.8599	-4.2957	-6.2787	74.9652	50.2300 
466.887	0.1284	-0.1470	0.7168	-1.7700	-26.1841	14.5874	-4.3890	-6.5698	75.1685	50.1800 
466.902	0.1152	-0.1182	0.7417	0.1831	-19.6533	11.1694	-4.4385	-6.7841	75.3168	50.2800 
466.902	0.0942	-0.0898	0.7656	2.1973	-15.5640	9.1553	-4.4550	-6.9434	75.4156	50.2300 
466.902	0.0977	-0.0601	0.7842	3.7842	-12.6953	9.8267	-4.4330	-7.0697	75.5035	50.0800 
466.918	0.1143	-0.0405	0.7993	5.3101	-11.0474	13.0615	-4.3945	-7.1796	75.6024	50.1800 
466.933