StartTime: 2017-07-14 13:50:30.215
Time(s)	ax(g)	ay(g)	az(g)	wx(deg/s)	wy(deg/s)	wz(deg/s)	AngleX(deg)	AngleY(deg)	AngleZ(deg)	T(°)	hx	hy	hz	Pressure(Pa)	Altitude(m) 
241.162	-0.1719	-0.0581	1.0273	-0.2441	-0.7935	1.4648	-3.6255	9.3658	73.4271	43.1500	166	48	-119	100593	0.61 
241.271	-0.1626	-0.0513	1.0259	0.1221	1.8921	2.6245	-3.5706	9.3988	73.5150	43.1300	162	48	-121	100593	0.61 
241.380	-0.1616	-0.0439	1.0400	0.6714	3.3569	3.2349	-3.4442	9.6899	73.7292	43.1300	165	53	-120	100593	0.61 
241.474	-0.1489	-0.0566	1.0322	-1.5259	3.9673	9.0942	-3.3398	9.9097	74.3335	43.1300	166	48	-124	100593	0.61 
241.568	-0.1558	-0.1206	1.0166	-3.4180	7.0190	8.4229	-3.5706	10.3107	75.3058	43.1200	166	47	-121	100593	0.61 
241.662	-0.1499	-0.1348	1.0317	0.1831	6.2256	7.3853	-3.7903	10.9094	76.2122	43.1200	171	41	-117	100593	0.61 
241.786	-0.1841	-0.1270	1.0186	5.9814	6.5308	5.3101	-3.6255	11.4423	76.9757	43.1400	174	45	-116	100593	0.61 
241.880	-0.2261	-0.0444	1.0459	10.2539	5.2490	24.9634	-2.4115	12.2937	78.5138	43.0900	176	41	-116	100593	0.61 
241.959	0.0049	0.0723	1.0098	11.4136	-0.7324	20.9961	-0.3790	12.3486	80.5463	43.1100	175	29	-113	100593	0.61 
242.146	-0.1060	0.1904	0.9238	14.8926	9.2773	8.6670	1.4117	12.3486	80.1233	43.1000	177	29	-112	100593	0.61 
242.177	-0.0444	0.1792	1.0415	4.4556	6.2866	4.9438	2.8180	13.0188	80.3210	43.0900	177	24	-109	100594	0.61 
242.271	-0.0298	0.1426	1.1069	0.0000	10.3149	2.3193	3.4552	12.9474	80.5573	43.0800	181	22	-108	100594	0.61 
242.396	0.0078	0.1157	1.3599	-3.6621	-12.3901	-14.5264	3.2849	11.8982	79.2828	43.1100	183	23	-105	100594	0.61 
242.474	-0.4238	0.0269	0.7603	-4.2725	-12.7563	-24.1699	2.8784	10.8160	76.1517	43.1000	175	26	-107	100594	0.61 
242.599	-0.2739	-0.0044	0.9517	-24.1089	-2.7466	-5.1880	0.4724	11.5027	73.9380	43.1000	169	39	-110	100594	0.61 
242.677	-0.1924	-0.1079	0.9116	-17.0898	10.0098	-14.0381	-2.2247	12.2003	73.5260	43.1000	171	43	-104	100594	0.61 
242.802	-0.0454	-0.1309	0.9263	-7.8735	-2.4414	-24.6582	-4.0759	12.1179	72.0209	43.0800	170	48	-97	100594	0.61 
242.896	-0.1377	0.0015	1.1675	6.8359	-15.9302	15.0146	-4.1418	11.7773	71.6583	43.0900	168	54	-96	100594	0.61 
243.021	-0.1377	0.1714	1.5103	-0.6714	-41.4429	42.1753	-3.6694	8.9923	74.6631	43.0800	165	50	-99	100594	0.61 
243.099	-0.3867	0.2300	0.5122	-11.9019	-3.8452	30.2124	-4.1144	7.3444	79.1840	43.1000	164	43	-101	100594	0.61 
243.193	-0.3672	-0.4043	0.9756	18.9209	25.2686	-40.7715	-4.4000	9.0033	81.0132	43.0800	167	35	-102	100593	0.61 
243.365	-0.0308	0.1543	0.8472	21.8506	7.8125	-26.4893	-1.5326	9.2505	75.6793	43.0900	166	38	-103	100593	0.61 
243.412	0.0386	0.1826	0.8667	-4.3335	4.2114	-11.7798	-0.4175	9.3549	73.3777	43.0600	164	42	-101	100593	0.61 
243.490	-0.2603	0.0879	1.3799	8.9722	-2.2583	-31.0059	-0.7416	8.3276	72.1472	43.0900	159	46	-102	100593	0.61 
243.630	-0.8208	0.1587	1.3276	18.0664	-1.3428	-13.5498	0.7581	7.3828	70.1093	43.0900	163	49	-102	100593	0.61 
243.755	-0.3965	0.0205	1.0239	-13.4888	11.6577	15.2588	0.2417	7.8113	71.5814	43.0800	157	48	-109	100593	0.61 
243.818	-0.1704	-0.1030	1.0283	-24.8413	11.5967	29.4189	-1.9391	8.8660	74.4159	43.0600	165	51	-108	100593	0.61 
243.912	-0.0098	-0.1670	0.9146	-7.9956	9.0942	11.4136	-3.8287	9.0637	77.1680	43.0800	173	44	-104	100593	0.61 
244.006	-0.0566	-0.0083	1.0669	6.4697	-18.7378	31.1279	-3.5651	9.0967	79.0686	43.0700	177	41	-99	100593	0.61 
244.130	-0.3530	0.2344	1.6636	-5.6763	-42.6636	31.4331	-2.9114	7.0972	81.3757	43.0700	178	36	-100	100593	0.61 
244.255	-0.0435	-0.2461	0.8052	9.2163	20.2026	30.6396	-3.5925	6.3556	84.4464	43.0800	176	28	-111	100593	0.61 
244.302	-0.2144	0.2754	1.0444	25.0854	6.9580	-38.9404	-2.1423	7.9926	81.7438	43.0700	181	28	-110	100593	0.61 
244.427	-0.0195	0.1123	0.8804	12.6343	2.6855	-14.4043	-0.0110	8.1793	79.8761	43.0600	180	30	-113	100592	0.61 
244.521	-0.0244	0.0522	1.0073	-4.6997	-0.5493	-11.9019	0.6647	8.3221	78.3710	43.0500	184	31	-111	100592	0.61 
244.630	-0.0444	0.2231	1.4180	0.4883	-24.8413	5.4321	0.5603	6.6138	76.6901	43.0700	181	39	-115	100592	0.61 
244.725	-0.5430	-0.0562	0.9419	14.4653	-14.2212	-17.7002	1.2799	5.5042	73.6469	43.0700	174	41	-123	100592	0.61 
244.834	-0.1255	0.0000	0.7905	-26.2451	11.3525	2.0142	0.4999	5.3394	74.9158	43.0600	170	42	-124	100592	0.61 
244.943	-0.1465	-0.2275	1.0195	-15.8081	15.4419	33.0811	-2.2797	7.8662	78.0908	43.0600	174	43	-122	100592	0.61 
245.037	0.0596	-0.1226	0.8384	5.7373	20.3857	2.5024	-2.7905	8.7506	79.8651	43.0600	184	39	-116	100592	0.61 
245.146	-0.2070	-0.6616	1.2671	-1.8921	0.2441	12.6953	-2.1918	9.0363	81.9910	43.0500	190	35	-115	100592	0.61 
245.256	-0.5908	-0.1294	1.4463	-37.2314	-6.8970	69.1528	-2.5598	6.5204	83.5895	43.0600	186	33	-117	100592	0.61 
245.334	-0.1196	-0.3359	0.8306	7.2021	13.6719	15.3809	-4.3011	7.9706	85.2704	43.0500	188	27	-119	100592	0.61 
245.443	-0.2529	0.3481	0.9380	49.3164	-1.5869	-77.5757	-2.4335	10.5139	78.6017	43.0600	191	30	-117	100592	0.61 
245.552	-0.1177	0.2129	0.8892	15.6860	6.1646	-39.5508	0.5768	10.5469	73.4106	43.0500	186	43	-119	100592	0.61 
245.693	0.0352	-0.0161	1.0054	-7.5073	-12.5732	-13.8550	0.6482	9.7504	71.1145	43.0500	184	50	-118	100592	0.61 
245.756	0.0640	-0.1338	1.5005	7.3853	-28.0151	6.8359	1.1975	8.2068	69.3896	43.0600	181	56	-124	100593	0.61 
245.865	-0.2285	0.1328	0.6904	7.3242	-24.5361	17.0288	3.5266	7.8772	65.6433	43.0500	174	61	-130	100593	0.61 
245.959	-0.2510	-0.0620	0.8735	-46.0205	2.4414	43.5181	1.8402	7.8607	67.9010	43.0400	178	56	-134	100592	0.61 
246.068	-0.1289	-0.2651	0.9380	-23.8647	0.1221	27.5269	-2.1588	8.8989	71.9275	43.0400	184	56	-128	100592	0.61 
246.162	-0.0391	0.0024	0.9702	0.1221	17.9443	6.1646	-3.4222	9.1626	72.9108	43.0500	189	55	-122	100592	0.61 
246.271	-0.0742	-0.5581	1.3159	0.4883	-10.3760	16.2354	-3.1146	7.8442	76.3715	43.0400	191	52	-126	100592	0.61 
246.412	-0.8657	-0.0342	1.1265	-48.2178	-39.5508	88.8672	-3.8068	5.4053	80.6616	43.0400	192	45	-132	100592	0.61 
246.459	-0.2524	-0.5186	0.9014	19.1040	22.3389	8.5449	-4.8615	6.4215	85.8142	43.0500	193	30	-137	100592	0.61 
246.568	-0.0239	0.3994	0.7617	33.0200	7.4463	-8.2397	-0.9943	7.8223	80.7770	43.0500	201	27	-135	100592	0.61 
246.662	-0.0615	0.2046	0.8618	5.4321	10.6201	-14.1602	1.1316	8.7067	79.9420	43.0400	202	30	-131	100592	0.61 
246.772	-0.0088	0.0767	1.0967	-3.9673	-7.9346	-17.8223	0.7416	8.7781	78.3380	43.0800	205	30	-132	100592	0.61 
246.912	-0.1797	-0.0005	1.3936	12.5732	-26.7334	-57.1289	0.7690	7.9156	75.4047	43.0500	202	37	-135	100592	0.61 
246.959	-0.1436	0.2817	0.7710	-8.3618	13.0005	15.9912	2.4500	7.8223	71.4825	43.0500	197	46	-140	100592	0.61 
247.084	-0.2925	-0.1943	0.9468	-39.7339	11.7798	41.9312	0.2911	9.6460	73.9709	43.0600	199	50	-137	100592	0.61 
247.178	-0.0776	-0.1714	0.9028	-18.4937	-1.8311	14.7705	-2.8894	10.2448	76.9702	43.0400	204	49	-132	100592	0.61 
247.287	-0.0532	0.0249	1.1353	3.1128	21.1182	16.4795	-3.6255	10.5743	78.1183	43.0600	211	47	-128	100592	0.61 
247.381	-0.1475	-0.1045	1.4434	7.2632	-9.3994	-24.0479	-3.4332	9.9481	81.4856	43.0500	216	41	-123	100592	0.61 
247.490	-0.6138	-0.1040	0.8032	-32.5928	-25.6348	42.5415	-4.5923	7.8717	84.4904	43.0600	209	32	-130	100592	0.61 
247.584	-0.3784	-0.5854	0.8926	23.6206	33.3862	-34.6069	-5.2075	9.6899	86.0065	43.0600	211	32	-132	100592	0.61 
247.693	-0.0371	0.2051	0.8027	31.7993	3.2959	-9.4604	-1.4282	10.6128	79.3323	43.0400	209	41	-130	100592	0.61 
247.771	-0.0137	0.3208	0.8833	-4.3945	-1.1597	2.9907	0.4120	10.5743	77.9810	43.0500	211	42	-132	100592	0.61 
247.896	-0.1567	0.2056	1.2793	4.7607	-11.4136	-19.4092	-0.1208	9.6075	77.8381	43.0700	211	47	-130	100592	0.61 
247.975	-0.3784	0.0347	1.1108	14.0381	-17.3340	-56.8848	0.3900	7.7289	75.6244	43.0500	201	49	-136	100592	0.61 
248.115	-0.1650	0.2690	0.8887	-20.6909	8.3618	23.5596	2.0654	8.0475	73.5535	43.0300	195	56	-137	100592	0.61 
248.193	-0.1953	-0.2500	0.9063	-45.6543	7.1411	59.0820	-1.0547	9.5197	77.0361	43.0400	198	62	-135	100592	0.61 
248.303	-0.0542	-0.2065	0.8647	-9.7656	8.6670	13.9160	-4.1089	10.0305	81.0187	43.0500	205	54	-127	100592	0.61 
248.428	-0.2109	0.0024	1.1885	10.8032	17.2729	2.4414	-4.1144	11.4917	81.1395	43.0400	209	54	-120	100592	0.61 
248.522	-0.0542	0.3130	1.5815	11.5356	-20.6299	-19.9585	-3.2410	9.8822	82.2876	43.0600	210	47	-122	100592	0.61 
248.585	-0.4639	-0.0337	0.6538	-10.0098	-6.5918	-4.9438	-4.2407	8.2178	84.9243	43.0500	202	47	-125	100592	0.61 
248.709	-0.3838	-0.3271	1.0449	32.1045	24.4751	-73.3643	-4.0924	9.7943	83.2764	43.0500	201	46	-127	100592	0.61 
248.803	-0.0059	0.1582	0.7979	28.9917	2.1973	-26.9775	-0.6702	9.8163	76.6077	43.0500	193	53	-126	100592	0.61 
248.913	0.0049	0.2563	0.8647	-3.2349	2.8687	-7.5073	0.7526	9.8108	73.9270	43.0500	185	59	-131	100593	0.61 
249.037	-0.1201	0.1870	1.2935	5.9204	-6.1035	-27.8931	0.1868	8.6627	73.1470	43.0500	183	61	-131	100593	0.61 
249.100	-0.5977	-0.1538	1.2949	26.5503	8.7891	-46.0815	1.1700	7.4377	71.1749	43.0500	174	63	-133	100593	0.61 
249.272	-0.1650	0.2378	0.9912	-18.0054	11.4746	6.7749	2.3181	8.2507	69.0820	43.0500	163	67	-136	100593	0.61 
249.318	-0.2236	-0.1958	0.8979	-35.5835	14.0991	26.6724	-0.6647	9.8492	70.7794	43.0500	165	66	-131	100593	0.61 
249.443	-0.0356	-0.1641	0.9028	-7.5684	7.9956	1.2207	-3.0487	10.5249	72.8613	43.0600	171	65	-121	100593	0.61 
249.522	-0.1641	0.1069	1.2144	0.7935	-5.2490	34.2407	-2.8729	11.4917	73.5919	43.0500	169	62	-117	100592	0.61 
249.616	-0.0938	0.4565	1.5415	-9.5215	-27.8931	24.1089	-3.0432	9.1681	75.7288	43.0700	169	53	-117	100592	0.61 
249.772	-0.2876	-0.0352	0.6279	-24.9023	-15.3198	16.5405	-5.1855	7.6465	79.6948	43.0600	169	48	-119	100592	0.61 
249.827	-0.4468	-0.3413	1.1216	37.0483	24.8413	-58.1665	-5.3119	9.5801	80.4858	43.0500	166	40	-117	100592	0.61 
249.941	0.0620	0.1450	0.7607	24.1699	5.4932	-23.4985	-1.1151	8.8330	74.9158	43.0500	160	40	-119	100592	0.61 
250.066	0.0503	0.1782	0.9165	-7.5684	1.3428	11.9629	0.2087	8.8770	73.7952	43.0700	160	41	-118	100592	0.61 
250.144	-0.2471	0.2446	1.2783	7.0801	-2.3804	-35.8276	-0.3516	8.1848	73.3777	43.0500	160	42	-118	100592	0.61 
250.223	-0.8965	0.0410	1.4629	39.2456	7.4463	-54.1992	0.9338	7.2455	71.1804	43.0500	154	41	-118	100592	0.61 
250.363	-0.2964	0.1616	0.9097	-21.1182	18.8599	23.4985	1.4337	7.8992	71.0486	43.0400	151	39	-122	100592	0.61 
250.441	-0.1274	-0.2764	0.9478	-24.1699	6.2866	24.7192	-1.3513	9.0747	75.5035	43.0400	154	33	-116	100592	0.61 
250.535	-0.0337	-0.1187	0.8682	-5.0659	11.1084	5.7373	-2.8839	9.4318	77.3053	43.0300	159	27	-114	100592	0.61 
250.645	-0.0986	0.0293	1.1514	5.3101	-4.1504	14.4653	-2.6367	10.5469	78.4094	43.0300	162	22	-109	100592	0.61 
250.785	-0.0283	0.5151	1.5063	6.7139	-27.7100	-7.3242	-2.4774	8.7067	79.2554	43.0400	164	16	-111	100592	0.61 
250.925	-0.4067	-0.0303	0.7324	-9.7656	-0.9766	-5.1270	-4.0265	7.1411	82.7710	43.0500	158	9	-114	100592	0.61 
250.972	-0.4243	-0.2666	1.0518	31.6162	29.2358	-72.8149	-3.7903	8.6462	82.0953	43.0400	159	8	-111	100592	0.61 
251.050	-0.0083	0.1782	0.8232	20.3857	6.5308	-18.7988	-0.4779	9.2725	76.9373	43.0400	160	15	-111	100592	0.61 
251.160	-0.0083	0.2124	0.9434	-5.9204	2.0752	10.3760	0.6866	9.4812	76.5417	43.0400	161	17	-109	100592	0.61 
251.254	-0.1553	0.2134	1.2661	3.8452	2.3193	-25.8179	0.1154	8.6188	76.9208	43.0500	165	14	-109	100592	0.61 
251.379	-0.4292	-0.0835	1.1758	15.5640	-3.2959	-35.2783	0.7196	7.4707	76.1627	43.0500	166	16	-110	100592	0.61 
251.488	-0.1992	0.2520	0.9546	-17.2119	11.6577	5.9814	1.8567	8.0530	74.9982	43.0500	158	19	-112	100592	0.61 
251.550	-0.2256	-0.2251	0.9331	-35.0952	0.5493	30.8838	-0.8569	9.3274	77.6349	43.0500	165	17	-110	100592	0.61 
251.754	-0.0132	-0.1387	0.8350	-8.8501	2.5635	6.1646	-3.2355	9.1846	80.0079	43.0400	170	18	-106	100591	0.61 
251.800	-0.0850	-0.0005	1.0952	3.4180	-2.4414	12.0850	-3.3398	10.0305	80.7001	43.0400	175	17	-101	100591	0.61 
251.894	0.0420	0.4482	1.5176	-0.6104	-28.0762	4.9438	-3.2190	8.5583	81.9965	43.0500	177	11	-103	100591	0.61 
251.973	-0.3525	-0.0947	0.7168	-15.4419	-2.0142	0.1831	-5.0153	7.5476	86.2152	43.0300	174	14	-102	100591	0.61 
252.067	-0.3198	-0.4028	0.8911	34.2407	20.3247	-41.9922	-4.7241	9.0857	86.4020	43.0400	177	12	-107	100591	0.61 
252.222	-0.0488	0.3052	0.8267	26.6113	3.9063	-29.2969	-1.2689	9.9591	80.5792	43.0500	177	16	-102	100591	0.61 
252.300	-0.0278	0.1924	0.9185	-7.5073	7.8125	-7.9346	-0.2032	10.3931	78.7500	43.0500	178	25	-104	100591	0.61 
252.394	-0.1411	0.2476	1.2344	2.8076	-4.8828	-20.3247	-0.8679	9.5087	77.4756	43.0500	177	28	-103	100592	0.61 
252.535	-0.5649	-0.0903	1.3018	21.6064	-8.4229	-36.2549	-0.3076	8.0804	76.1627	43.0500	178	35	-107	100592	0.61 
252.597	-0.2373	0.1997	0.9980	-18.4937	8.7891	29.5410	1.0876	8.3826	76.7175	43.0500	173	36	-113	100592	0.61 
252.707	-0.2124	-0.1475	0.9819	-27.5879	-3.9063	41.5649	-1.2634	9.1626	80.6177	43.0500	172	34	-109	100592	0.61 
252.801	-0.0381	-0.1196	0.8770	-3.1738	-8.6060	21.7896	-2.6312	8.3936	84.3530	43.0400	177	31	-109	100592	0.61 
252.926	-0.0283	0.0630	0.9697	12.4512	-5.2490	19.1650	-2.0764	7.8607	86.2646	43.0500	178	25	-112	100592	0.61 
253.004	-0.0615	0.0869	1.2173	21.1792	-9.8877	13.9771	-1.0437	6.9653	88.3411	43.0600	177	20	-111	100592	0.61 
253.129	-0.5596	0.0439	0.9824	-0.5493	9.1553	-6.8359	-1.5161	7.3059	92.1698	43.0600	178	11	-109	100593	0.61 
253.207	-0.2905	0.1045	0.8540	30.2124	5.5542	-43.3960	0.1923	8.0145	90.9833	43.0300	176	8	-114	100592	0.61 
253.332	-0.2983	0.1650	0.9482	2.8687	0.5493	-8.5449	1.9940	8.9484	87.7039	43.0300	174	14	-114	100592	0.61 
253.410	-0.2705	0.1284	0.9785	-6.2256	-11.8408	-21.2402	2.1313	8.6188	86.3525	43.0200	176	16	-112	100592	0.61 
253.496	-0.2593	0.1001	1.0444	-23.5596	-7.3242	20.8740	1.2360	7.8937	85.5066	43.0400	173	18	-115	100592	0.61 
253.611	-0.1792	0.0957	1.0601	-0.1831	-5.4321	-12.3291	-0.2692	6.5698	85.5176	43.0400	166	24	-122	100592	0.61 
253.737	-0.2319	0.0254	0.9976	-5.0659	12.5122	12.8784	0.0549	6.8170	85.3693	43.0500	166	25	-120	100591	0.61 
253.807	-0.1484	-0.0054	1.0571	-3.9673	7.9346	4.9438	-0.3351	8.0585	85.9186	43.0600	169	24	-116	100592	0.61 
253.936	-0.1382	-0.0435	1.0776	-4.3945	7.0190	2.0752	-0.7745	8.8110	86.1768	43.0600	173	23	-118	100592	0.61 
254.035	-0.1240	-0.0522	1.0425	-2.6855	4.3335	-4.7607	-1.3074	8.9868	85.8087	43.0600	169	23	-118	100592	0.61 
254.151	-0.1406	-0.0493	1.0415	-2.6855	4.6387	-0.7324	-1.6644	9.3109	85.3638	43.0300	175	22	-114	100592	0.61 
254.235	-0.1338	-0.0352	1.0322	-2.0752	4.4556	-1.1597	-1.9446	9.6405	85.1056	43.0500	176	26	-116	100592	0.61 
254.382	-0.1499	-0.0215	1.0313	-2.6245	2.3804	3.1128	-2.1478	9.8987	84.9628	43.0600	178	24	-111	100592	0.61 
254.451	-0.1709	-0.0249	1.0386	-2.5024	0.6104	7.6904	-2.2742	10.0800	85.3308	43.0800	179	27	-112	100592	0.61 
254.566	-0.1733	-0.0347	1.0098	-1.4648	2.4414	9.0332	-2.3071	10.1569	85.8911	43.0700	179	25	-108	100592	0.61 
254.636	-0.1743	-0.0376	1.0313	0.0000	1.5259	9.4604	-2.1808	10.4425	86.6162	43.0500	181	23	-105	100592	0.61