step N
StartTime: 2017-07-12 12:08:11.416
Time(s)	ax(g)	ay(g)	az(g)	wx(deg/s)	wy(deg/s)	wz(deg/s)	AngleX(deg)	AngleY(deg)	AngleZ(deg)	T(°)	hx	hy	hz	Pressure(Pa)	Altitude(m) 
1167.342	-1.5991	-0.0010	1.7061	13.4888	-2.8076	-16.3574	-0.2802	43.6816	123.6786	40.5300	130	-192	340	100952	0.31 
1167.483	-1.5957	0.0640	1.6748	3.4180	-1.5869	4.3945	0.1978	43.4180	122.7283	40.5400	136	-189	340	100952	0.31 
1167.576	-1.5522	-0.0503	1.5845	2.1362	-2.9907	-8.6060	1.0217	43.2532	123.1348	40.5400	137	-192	343	100951	0.31 
1167.686	-1.6328	-0.0146	1.7119	17.2119	-4.7607	-2.0752	0.3241	43.3521	121.0968	40.5400	137	-190	342	100951	0.31 
1167.795	-1.5859	0.0244	1.6792	7.2632	-4.1504	-6.7749	0.4724	42.8796	119.5367	40.5300	136	-188	346	100951	0.31 
1167.904	-1.5566	0.0039	1.6802	-4.9438	1.4648	9.2773	0.8899	42.5995	120.1135	40.5300	138	-186	343	100951	0.31 
1168.014	-1.5649	-0.0518	1.6948	-8.3618	-2.5024	9.7046	1.0272	42.6324	121.5363	40.5400	139	-187	342	100951	0.31 
1168.092	-1.5459	-0.0571	1.7139	3.5400	-3.6011	0.0000	1.1371	42.3798	122.0416	40.5500	134	-188	339	100951	0.31 
1168.218	-1.5386	0.0317	1.7139	4.3945	0.2441	-4.0283	1.3733	42.1820	121.5692	40.5500	136	-189	338	100951	0.31 
1168.327	-1.5376	-0.0078	1.6719	4.0283	3.6621	-0.7935	1.5051	42.3138	121.2781	40.5500	136	-190	341	100951	0.31 
1168.451	-1.6138	-0.0449	1.7197	6.9580	-3.6621	4.8828	2.3126	42.9675	121.6132	40.5500	135	-188	344	100951	0.31 
1168.530	-1.5708	0.0342	1.5732	9.5825	-14.4043	-8.2397	1.8567	42.5116	120.1300	40.5500	133	-187	342	100951	0.31 
1168.670	-1.5737	-0.0605	1.7007	-0.7935	-1.7090	4.0283	1.3678	42.5116	119.5422	40.5600	136	-188	342	100952	0.31 
1168.764	-1.5649	0.0117	1.6616	0.1221	-3.2349	-6.9580	1.3293	42.3083	119.3225	40.5400	137	-187	339	100952	0.31 
1168.858	-1.5791	-0.0449	1.6992	-1.9531	7.3853	3.0518	1.0876	42.7588	119.2566	40.5400	139	-185	339	100951	0.31 
1168.968	-1.5996	-0.0029	1.6992	-5.9204	2.0752	4.0894	0.9229	42.9950	119.5917	40.5400	137	-187	341	100951	0.31 
1169.077	-1.5811	-0.0283	1.7051	-2.6245	5.3711	5.6152	0.9668	43.2916	120.3937	40.5200	139	-188	344	100950	0.31 
1169.217	-1.5767	0.0122	1.6958	-3.4180	2.4414	2.5635	1.0272	43.4619	120.8112	40.5400	137	-189	343	100951	0.31 
1169.327	-1.5757	-0.0156	1.7119	-4.1504	2.6245	8.3008	1.2689	43.6926	121.7340	40.5400	137	-187	344	100950	0.31 
1169.420	-1.5850	0.0020	1.7007	-4.8828	-1.5869	7.9346	1.4063	43.6981	122.5195	40.5500	134	-188	342	100950	0.31 
1169.530	-1.5820	0.0308	1.6890	-11.9019	0.9155	24.2310	2.1588	43.5608	124.6454	40.5500	134	-193	344	100950	0.31 
1169.624	-1.5820	-0.0894	1.6860	-10.0098	1.8311	24.6582	3.3728	43.5718	128.1061	40.5300	129	-201	341	100950	0.31 
1169.733	-1.5801	-0.0044	1.6802	1.9531	2.8076	-1.0986	3.5101	43.7970	128.6829	40.5100	127	-204	341	100950	0.31 
1169.858	-1.6240	0.0439	1.6938	1.4038	10.4370	1.4648	3.7573	44.6210	128.4796	40.5200	126	-204	342	100950	0.31 
1169.952	-1.6309	0.0093	1.6909	1.8921	5.0049	3.5400	3.8123	45.2747	128.3478	40.5100	125	-204	342	100950	0.31 
1170.030	-1.6167	0.0361	1.6763	3.2349	-5.6763	2.8076	4.1144	45.0769	128.3148	40.5000	126	-206	347	100950	0.31 
1170.155	-1.6147	0.0581	1.6602	-1.5259	-1.5259	8.4229	4.6802	44.6484	128.8367	40.5100	123	-208	349	100950	0.31 
1170.265	-1.6128	0.0522	1.6768	-6.5308	3.9673	11.9019	5.0537	44.7034	129.9243	40.5200	121	-208	344	100950	0.31 
1170.389	-1.6021	0.0386	1.6597	-9.1553	6.4697	14.0381	5.5042	44.9286	131.6382	40.5100	121	-211	345	100950	0.31 
1170.468	-1.6294	0.0396	1.6792	-7.7515	5.5542	13.3057	5.6909	45.4285	133.0554	40.5200	118	-214	344	100950	0.31 
1170.592	-1.6362	0.0244	1.6533	-2.9297	6.8359	3.1738	5.8722	45.8020	133.8904	40.5300	118	-215	347	100950	0.31 
1170.717	-1.6558	0.0439	1.6582	0.0000	3.4180	-0.8545	5.6250	46.3184	133.5443	40.5200	116	-220	347	100950	0.31 
1170.780	-1.6626	0.0371	1.6558	2.8687	0.2441	-4.1504	5.2295	46.4502	132.6764	40.5400	116	-217	347	100951	0.31 
1170.905	-1.6470	0.0449	1.6460	6.3477	-0.9155	-7.7515	4.8340	46.2964	131.2976	40.5400	114	-216	347	100950	0.31 
1171.015	-1.6426	0.0640	1.6470	7.9956	-0.4272	-8.6670	4.5319	46.1371	129.7266	40.5300	120	-211	349	100951	0.31 
1171.124	-1.6172	0.0835	1.6514	7.8125	-3.0518	-9.5825	4.3066	45.9833	128.1226	40.5600	121	-211	353	100951	0.31 
1171.218	-1.6182	0.0781	1.6514	1.7090	0.8545	-3.9673	3.9716	45.8130	126.9690	40.5600	126	-208	354	100951	0.31 
1171.374	-1.6089	0.0640	1.6616	-2.3193	3.4790	1.2817	3.7408	45.9338	126.7053	40.5700	124	-206	351	100950	0.31 
1171.452	-1.6196	0.0293	1.6792	-3.9673	-0.0610	-2.8687	3.3673	46.0931	126.5515	40.5900	126	-207	351	100950	0.31 
1171.577	-1.6494	-0.0630	1.5781	-3.1738	3.3569	-9.2773	2.0874	46.1096	125.5078	40.5700	130	-209	354	100951	0.31 
1171.686	-1.6890	0.0415	1.8555	1.3428	7.1411	-39.1846	-0.8405	47.0435	121.1298	40.5700	131	-203	351	100951	0.31 
1171.780	-1.5371	-0.1387	1.5830	-24.7192	-6.7749	0.2441	-3.3234	45.8789	119.5532	40.5900	132	-197	350	100950	0.31 
1171.874	-1.5522	-0.1377	1.6992	-8.2397	12.6343	-14.2822	-6.1688	46.4117	117.8668	40.5800	135	-190	348	100950	0.31 
1171.999	-1.5117	-0.0571	1.6372	-0.9766	11.2305	-6.0425	-7.5476	46.8896	115.9332	40.5700	138	-191	350	100950	0.31 
1172.077	-1.5332	-0.1343	1.8350	-5.9204	6.0425	12.8784	-6.8939	47.9004	116.8506	40.5800	141	-186	354	100950	0.31 
1172.202	-1.8716	-0.3535	1.8169	-20.5688	-22.5220	-15.7471	-7.6630	46.4172	117.2681	40.5800	139	-188	354	100951	0.31 
1172.327	-1.5698	0.2080	1.2544	29.0527	-6.5918	50.0488	-5.5481	44.3243	117.7734	40.5400	139	-184	347	100951	0.31 
1172.421	-1.7188	-0.0620	1.8052	32.4097	-14.4653	2.5024	-0.3735	46.7413	121.4703	40.5400	139	-194	354	100951	0.31 
1172.515	-1.5449	0.0518	1.5249	24.6582	-4.2114	16.3574	3.9825	45.5878	123.0304	40.5300	138	-200	357	100951	0.31 
1172.625	-1.5122	0.0977	1.7124	9.1553	-7.3853	-4.5776	5.9711	45.4779	123.6072	40.5500	137	-202	364	100950	0.31 
1172.734	-1.5708	0.1196	1.7783	8.8501	7.6294	-20.8740	4.5319	45.1428	121.2396	40.5300	141	-199	364	100950	0.31 
1172.859	-1.8008	0.0713	2.1055	19.5313	-27.3438	22.7051	6.0754	44.8022	121.5747	40.5400	144	-195	371	100950	0.31 
1172.969	-1.6533	-0.1636	1.1929	-11.9019	-56.0303	16.0522	9.7174	42.1930	125.3265	40.5300	142	-204	365	100951	0.31 
1173.062	-1.8755	0.3877	2.3071	-29.2358	29.5410	-14.9536	4.0155	44.6484	120.7013	40.5100	145	-200	360	100950	0.31 
1173.174	-1.4351	-0.1362	1.4775	-39.6729	7.1411	-15.0757	-0.7800	42.3358	119.6411	40.5200	147	-194	355	100950	0.31 
1173.269	-1.3428	0.0264	1.7407	-14.4043	11.9629	27.5269	-2.8400	43.3191	119.8993	40.5000	150	-193	349	100951	0.31 
1173.378	-1.6670	-0.3882	2.0229	-17.0288	22.7051	6.9580	-0.7251	43.5663	124.9146	40.4800	140	-199	347	100951	0.31 
1173.518	-1.8438	0.1084	1.4844	-6.1035	-42.4194	-1.0986	-6.7017	42.5446	119.2017	40.5000	147	-196	350	100951	0.31 
1173.581	-1.5605	-0.5688	1.9243	18.6157	50.2319	31.9214	-0.9393	44.6100	125.6451	40.4900	146	-200	341	100951	0.31 
1173.691	-1.4565	0.2134	1.4810	41.6870	1.7700	-9.8267	2.5104	44.2639	124.7662	40.4700	144	-208	348	100951	0.31 
1173.815	-1.3740	0.0503	1.6123	7.0801	4.0894	-17.8833	4.2352	45.1923	123.8818	40.4600	149	-209	355	100951	0.31 
1173.925	-1.7080	0.4131	1.7129	8.5449	-9.3994	-43.0908	1.0162	44.5441	118.2568	40.4600	155	-200	356	100951	0.31 
1174.049	-1.9004	0.1187	1.6143	36.0718	-33.8135	61.5845	6.2183	43.7201	122.0746	40.4600	157	-198	361	100951	0.31 
1174.143	-1.6758	0.2852	1.5864	-35.9497	10.4370	-25.3296	3.9056	43.0334	119.7070	40.4600	155	-198	359	100951	0.31 
1174.268	-1.5239	-0.1191	1.4717	-53.9551	-26.0010	34.3018	1.0217	41.9897	122.2119	40.4400	154	-195	347	100950	0.31 
1174.378	-1.5283	-0.2080	1.6792	-33.5693	18.1885	28.3203	-2.4390	43.5773	124.7552	40.4400	149	-203	340	100950	0.31 
1174.456	-1.4927	-0.0732	1.7598	-10.3149	9.8267	44.7388	-0.6427	45.1154	129.6277	40.4500	147	-210	338	100950	0.31 
1174.566	-1.8564	-0.0464	2.1128	3.4790	-3.4790	-25.0854	0.9174	46.0437	131.2866	40.4300	140	-219	343	100950	0.31 
1174.675	-1.7646	0.0332	1.2603	24.8413	-34.2407	-52.2461	-4.2462	44.3793	123.2336	40.4300	147	-216	345	100950	0.31 
1174.769	-1.7603	-0.5615	1.9214	70.6177	-16.4795	-31.0059	1.3458	46.5271	124.8376	40.4200	150	-212	350	100950	0.31 
1174.893	-1.4878	0.2935	1.3877	74.4629	-1.8311	-42.5415	4.8175	44.4122	118.0811	40.4300	157	-207	358	100950	0.31 
1175.003	-1.3818	0.1006	1.5991	19.7754	1.6479	-41.2598	5.2789	45.4779	113.1647	40.4300	171	-193	368	100950	0.31 
1175.097	-1.5771	-0.0132	1.8013	7.1411	6.7749	-53.1616	1.3129	45.5273	106.4575	40.4300	179	-177	369	100950	0.31 
1175.237	-2.1577	0.7729	1.6313	53.7720	-34.0576	56.6406	3.9386	44.4452	106.3641	40.4200	185	-165	375	100951	0.31 
1175.331	-1.6206	0.4971	1.6377	-38.9404	44.1895	-61.8896	1.9226	43.6102	102.7826	40.4000	187	-166	366	100950	0.31 
1175.440	-1.4170	-0.2505	1.3672	-88.8672	-37.4756	34.9731	-3.1311	41.8909	105.8258	40.4000	190	-159	363	100950	0.31 
1175.519	-1.3442	-0.0244	1.6099	-24.9023	-11.0474	42.1143	-6.4435	42.1051	109.7040	40.4000	185	-165	350	100950	0.31 
1175.675	-1.6558	-0.2202	1.8105	-21.1182	4.8828	55.4199	-2.4280	43.5992	118.1470	40.3900	179	-180	349	100950	0.31 
1175.753	-1.8472	-0.1040	1.9209	-31.0059	-10.8032	-16.6016	-3.8342	43.2422	118.8446	40.4000	171	-191	351	100951	0.31 
1175.847	-1.7739	0.5117	1.1362	-3.2349	15.8081	48.8281	-6.2677	41.8964	117.5922	40.3900	172	-189	340	100951	0.31 
1175.957	-1.6846	-0.4214	1.7461	49.9268	-19.7754	-6.0425	-0.1483	45.0275	122.4646	40.3900	172	-200	349	100951	0.31 
1176.112	-1.4868	0.2031	1.5151	32.8369	16.1133	-12.0239	3.6694	44.4562	120.2014	40.3800	175	-197	359	100951	0.31 
1176.190	-1.2871	-0.0381	1.6191	10.8032	-7.6294	-32.0435	3.4113	44.2145	117.7020	40.3700	177	-194	364	100951	0.31 
1176.285	-2.2661	0.3467	2.5054	31.0059	15.3809	19.9585	2.1204	45.1868	113.3020	40.3700	186	-182	368	100951	0.31 
1176.378	-1.5166	-0.3286	1.1660	3.7231	-44.3115	-7.0190	8.4485	41.4185	118.4930	40.3600	184	-190	363	100952	0.31 
1176.534	-1.7437	0.3857	1.8032	-54.5044	-4.7607	7.9346	1.4063	44.2584	113.8348	40.3500	187	-184	369	100951	0.31 
1176.628	-1.3438	-0.2026	1.4707	-34.9121	10.4370	1.0986	-2.5653	42.8467	115.7739	40.3600	184	-182	358	100951	0.31 
1176.737	-1.3901	0.0132	1.7788	-4.6997	10.8032	38.8184	-2.2137	43.8245	117.5592	40.3500	185	-186	360	100951	0.31 
1176.847	-1.9023	-0.4102	2.2959	-25.5737	2.6855	-10.7422	-0.4175	44.1595	122.1844	40.3600	177	-198	360	100951	0.31 
1176.956	-1.7749	0.4946	1.1436	2.5635	-20.5688	48.9502	-5.1361	42.2314	117.5702	40.3500	182	-195	356	100951	0.31 
1177.019	-1.6782	-0.4868	1.8662	33.5693	-0.4883	14.6484	2.4170	45.4614	125.8099	40.3500	179	-208	363	100951	0.31 
1177.159	-1.5269	0.2935	1.4443	37.3535	18.0054	-22.8882	4.6527	45.3021	122.4536	40.3600	179	-209	369	100951	0.31 
1177.254	-1.3608	0.1572	1.6787	-13.4888	-12.0239	-7.0190	4.6582	46.2799	121.3165	40.3500	181	-212	378	100951	0.31 
1177.362	-1.6636	0.4131	1.9688	8.6670	18.9209	-9.8877	2.0215	46.0272	118.5699	40.3700	188	-208	381	100951	0.31 
1177.503	-1.8262	-0.1367	1.4048	25.6958	6.7139	11.5967	8.1024	44.8901	123.5577	40.3500	186	-214	385	100951	0.31 
1177.581	-1.5928	0.5962	1.5723	-53.2837	-5.7373	-18.4326	2.6093	46.1810	119.2181	40.3400	184	-214	385	100951	0.31 
1177.706	-1.4302	-0.3467	1.4287	-52.6733	-23.7427	22.8271	-1.1810	44.8846	122.2888	40.3100	184	-217	372	100951	0.31 
1177.785	-1.3545	-0.1104	1.5869	10.6201	4.3335	26.7944	-1.8787	45.0385	123.7061	40.3000	176	-223	362	100950	0.31 
1177.894	-1.7832	-0.1694	1.7422	-6.8970	13.3667	44.1895	3.3124	46.1481	130.0946	40.2700	169	-236	364	100950	0.31 
1178.019	-1.8281	-0.1729	1.7046	-30.1514	-14.7705	-89.7827	-6.0040	45.8624	122.0581	40.2700	161	-242	367	100950	0.31 
1178.159	-1.5342	-0.2065	1.4746	29.4800	68.2983	43.0298	0.8734	46.6150	128.6279	40.2400	162	-239	358	100950	0.31 
1178.207	-1.5679	0.1147	1.4297	56.5186	-10.4980	-18.5547	4.7681	47.8510	127.8864	40.2200	156	-251	373	100950	0.31 
1178.331	-1.4902	0.1689	1.5269	9.6436	-2.4414	-9.4604	7.9541	47.5763	127.3096	40.2100	157	-258	387	100950	0.31 
1178.535	-1.5420	-0.0063	1.7607	2.1973	-12.0239	-49.8657	4.3671	47.4719	123.0524	40.2100	158	-250	390	100950	0.31 
1178.628	-2.2813	-0.0107	2.0703	46.3257	-35.2173	13.9160	4.1364	46.9556	119.8499	40.2000	161	-245	388	100950	0.31 
1178.659	-1.6611	-0.4771	1.1816	4.7607	-46.3867	-40.5884	9.0308	44.5551	121.4758	40.1900	155	-244	389	100950	0.31 
1178.784	-1.8267	0.1626	1.7856	-67.8711	-25.9399	25.0854	1.1920	46.6974	116.9000	40.1700	154	-238	379	100950	0.31 
1178.878	-1.4092	-0.2432	1.4697	-42.7856	14.2822	3.7842	-3.4662	44.5001	119.4049	40.1800	145	-237	355	100950	0.31 
1179.019	-1.3398	0.0483	1.6401	-0.8545	15.9912	53.7720	-2.3785	45.5768	122.9205	40.1900	138	-233	344	100949	0.31 
1179.066	-1.7905	-0.3838	2.1235	-15.0146	4.0283	-4.1504	1.0931	45.8844	128.6115	40.1900	122	-239	344	100949	0.31 
1179.222	-1.8496	0.0332	1.5532	-7.9956	-33.8135	-30.3955	-6.9653	43.3740	120.6134	40.1800	118	-229	335	100950	0.31 
1179.316	-1.6353	-0.6294	2.0498	36.0718	26.5503	17.7002	-1.1261	45.9448	126.3098	40.1400	115	-228	327	100950	0.31 
1179.410	-1.5156	0.1958	1.4097	67.6270	-3.8452	-33.6304	2.1533	44.0002	122.4591	40.1400	112	-224	335	100950	0.31 
1179.534	-1.4063	0.0933	1.6001	8.8501	-18.8599	-22.8271	3.8672	44.3628	119.9048	40.1000	118	-216	346	100950	0.31 
1179.644	-1.6265	0.0479	1.7007	4.0894	3.7231	-47.6074	0.3351	43.5333	114.8236	40.1000	126	-206	346	100950	0.31 
1179.753	-2.0664	0.2949	1.7939	54.8706	-14.0381	34.0576	1.9611	43.9948	114.2194	40.1100	133	-190	346	100950	0.31 
1179.847	-1.5874	-0.2769	1.0215	-5.0049	-35.7666	-75.3174	4.4550	41.5283	114.3842	40.0900	133	-194	348	100950	0.31 
1179.956	-1.7114	-0.0479	1.7231	-61.7676	-35.4004	43.0298	-0.0824	44.8462	114.3787	40.0800	136	-187	350	100950	0.31 
1180.050	-1.5039	-0.1938	1.5918	-43.5791	21.7285	1.5259	-4.1693	43.5388	117.0209	40.0500	131	-186	341	100950	0.31 
1180.159	-1.4526	0.0254	1.6841	-14.8315	10.9863	52.1851	-2.9333	44.8407	121.7505	40.0300	130	-187	336	100950	0.31 
1180.269	-1.6206	-0.3848	1.6616	-16.1743	6.2256	48.5229	1.5546	44.9286	129.9023	40.0200	123	-198	335	100950	0.31 
1180.410	-1.6035	-0.1592	1.7231	-33.2642	-13.5498	-8.6670	-1.1591	44.2035	129.5837	40.0100	123	-206	331	100949	0.31 
1180.473	-1.5923	0.1597	1.1484	0.0610	-10.3149	21.0571	-3.9935	43.0060	127.6227	39.9800	124	-200	327	100949	0.31 
1180.644	-1.7271	-0.2344	1.9170	35.9497	-18.9819	6.9580	0.3571	45.8405	131.2866	40.0000	121	-206	328	100949	0.31 
1180.738	-1.5410	0.1606	1.4233	39.9170	10.3149	2.6245	4.3945	44.6649	130.2924	39.9800	120	-206	333	100949	0.31 
1180.847	-1.4771	0.0747	1.6660	6.4697	-1.8311	-15.6250	5.6854	45.6921	129.1443	40.0000	124	-206	343	100949	0.31 
1180.910	-1.6787	0.0347	1.7837	5.5542	11.3525	-46.9360	1.8842	45.6427	123.8544	39.9900	135	-202	345	100948	0.31 
1181.019	-1.9473	0.1113	2.0264	50.2319	-16.6016	17.0898	3.0103	45.6647	121.6846	39.9800	144	-193	350	100949	0.31 
1181.128	-1.6006	-0.3374	1.0259	-5.1880	-47.7905	-27.0386	8.8605	42.4841	125.6067	39.9700	140	-199	349	100948	0.31 
1181.238	-1.9639	0.3301	2.1475	-47.3633	-10.0708	31.8604	4.5593	46.3623	123.2886	39.9900	142	-193	351	100948	0.31 
1181.363	-1.4814	-0.1538	1.5298	-43.5181	16.7847	3.5400	0.4010	44.0167	125.3540	39.9600	141	-197	342	100948	0.31 
1181.456	-1.4375	-0.0308	1.7930	-15.5640	-9.1553	34.3018	-0.3955	44.9176	127.6172	39.9800	139	-200	336	100947	0.31 
1181.566	-1.5986	-0.2881	1.7520	-23.2544	-0.5493	52.7344	2.2632	43.3191	133.8025	39.9900	128	-209	332	100947	0.31 
1181.660	-1.8896	-0.2114	1.8521	-45.7153	-30.9448	-41.7480	-2.0874	42.4182	132.5446	39.9900	121	-213	324	100947	0.31 
1181.770	-1.6172	0.1689	1.2402	-6.6528	18.3105	73.4253	-1.2360	41.3910	135.8569	39.9700	120	-211	312	100947	0.31 
1181.879	-1.5596	0.0503	1.6128	34.9731	-12.1460	-11.3525	2.5433	42.6489	138.3673	39.9400	114	-219	314	100948	0.31 
1181.973	-1.5361	0.1030	1.6445	14.5264	22.5220	-1.0986	4.8834	43.1104	137.3840	39.9300	110	-227	320	100948	0.31 
1182.082	-1.4360	0.0229	1.6328	-7.9346	-3.1738	-23.4985	4.0594	43.6377	135.5603	39.9400	119	-225	324	100948	0.31 
1182.207	-1.6294	-0.0703	1.7700	3.7842	7.5073	-29.3579	0.3131	44.3903	130.7043	39.9200	127	-216	328	100948	0.31 
1182.316	-2.1001	0.5000	1.9434	53.8940	8.3008	36.6821	2.9938	45.0220	129.6442	39.9300	134	-211	329	100948	0.31 
1182.410	-1.4844	-0.1255	0.9980	-26.7944	-27.1606	-32.8369	6.0260	41.5887	132.4951	39.9200	128	-221	330	100948	0.31 
1182.519	-1.8955	0.0508	1.9199	-53.1616	-24.4141	46.3867	4.4110	46.0712	134.3793	39.9200	127	-221	327	100948	0.31 
1182.660	-1.6250	-0.0781	1.4771	-61.6455	2.5024	50.7813	2.3346	44.1925	139.9988	39.9200	114	-223	318	100948	0.31 
1182.723	-1.6265	-0.0317	1.8022	-52.3682	-1.2207	79.4678	2.7631	44.9615	147.9144	39.9100	102	-231	303	100948	0.31 
1182.863	-1.6431	-0.1987	1.5479	-27.4658	14.1602	89.1113	6.5753	42.9510	158.9008	39.8900	73	-242	287	100948	0.31 
1182.957	-1.5410	-0.0234	1.4312	-38.7573	-16.8457	18.3105	6.1688	43.6432	162.5427	39.8700	54	-248	281	100947	0.31 
1183.082	-1.8174	0.1333	1.5957	-23.6206	11.4136	48.0957	6.8280	44.2090	166.3605	39.8700	41	-249	269	100947	0.31 
1183.160	-1.6650	0.1343	1.5430	-41.7480	20.3857	61.5845	8.7286	45.0714	172.5623	39.8600	31	-251	259	100947	0.31 
1183.304	-1.6064	-0.0122	1.6577	-26.4282	0.7935	52.6123	11.4532	45.3406	179.9780	39.8600	15	-248	251	100947	0.31 
1183.367	-1.6294	0.0845	1.6890	-16.7236	-0.4272	6.7749	11.1401	45.0934	-178.8519	39.8800	4	-246	246	100948	0.31 
1183.507	-1.6768	0.0645	1.6621	-25.3906	0.0610	4.6997	9.2010	44.8022	-179.8462	39.8700	-1	-242	237	100948	0.31 
1183.569	-1.5977	-0.0332	1.5977	-15.8081	-1.7090	11.2305	8.5529	44.8077	-179.7748	39.8700	-4	-238	234	100948	0.31 
1183.694	-1.7168	0.1138	1.6641	-16.2354	0.8545	12.0239	7.2070	45.1099	178.9838	39.8700	-8	-235	233	100948	0.31 
1183.804	-1.6401	-0.0229	1.6846	-10.3149	0.0000	7.0801	6.7731	45.1648	179.1980	39.8800	-10	-233	225	100948	0.31 
1183.913	-1.6025	0.0591	1.5967	10.4370	-13.0005	14.8315	7.4323	44.0277	178.2916	39.8700	-12	-231	225	100948	0.31 
1184.007	-1.6978	0.0122	1.7710	2.1973	-3.1128	26.0010	10.5524	43.3521	-179.8132	39.8900	-20	-234	224	100948	0.31 
1184.136	-1.6367	0.0352	1.6147	-15.7471	0.1831	5.5542	10.2448	42.8522	179.8792	39.9000	-27	-233	225	100948	0.31 
1184.212	-1.6187	-0.0215	1.6025	-9.2163	-6.8970	-4.3945	8.5638	42.9291	178.4125	39.9100	-31	-230	221	100948	0.31 
1184.336	-1.6553	0.0444	1.6597	-4.0283	13.6719	-2.2583	7.5916	43.6652	176.3745	39.8900	-31	-231	222	100948	0.31 
1184.446