StartTime: 2017-07-11 16:15:19.429
Time(s)	ax(g)	ay(g)	az(g)	wx(deg/s)	wy(deg/s)	wz(deg/s)	AngleX(deg)	AngleY(deg)	AngleZ(deg)	T(°)	hx	hy	hz	Pressure(Pa)	Altitude(m) 
790.284	-1.1982	-0.0479	1.8560	-0.9155	-2.6245	-3.0518	-1.7853	32.7008	153.2043	43.7600	10	-253	221	100833	0.41 
790.409	-1.1777	-0.0806	1.8472	0.3662	-2.9297	-5.2490	-2.1204	32.4207	152.6715	43.7600	10	-255	222	100833	0.41 
790.487	-1.1958	-0.1167	1.8994	-0.6104	-1.4648	-13.6719	-2.6422	32.1570	151.5509	43.7700	10	-255	219	100833	0.41 
790.596	-1.0918	-0.1084	1.9189	1.8921	-8.6670	5.5542	-2.8729	31.4099	151.0510	43.7500	13	-256	220	100833	0.41 
790.721	-1.1572	-0.1079	1.7871	2.7466	-3.8452	7.0190	-2.2797	30.7617	151.6992	43.7500	12	-256	222	100832	0.41 
790.799	-1.1606	0.1064	1.9087	4.3335	-6.9580	14.4043	-1.4612	30.8551	152.8912	43.7400	11	-257	221	100832	0.41 
790.940	-0.9468	-0.0420	1.9321	14.2212	3.7842	6.9580	0.3735	30.5804	154.8633	43.7400	6	-262	225	100832	0.41 
791.034	-1.0015	0.0625	1.6909	2.8687	10.0098	5.7373	2.0050	31.1572	155.5334	43.7500	3	-264	230	100832	0.41 
791.112	-1.0718	-0.1001	1.5635	-2.8687	-11.0474	-27.5879	1.3678	31.2506	155.0940	43.7700	1	-266	231	100832	0.41 
791.237	-0.9844	0.0547	1.5225	8.8501	-18.4326	-43.2739	-0.5493	29.9323	150.7764	43.7600	8	-268	233	100832	0.41 
791.346	-1.3853	0.1030	2.8408	14.5264	-15.9912	25.7568	-1.7743	31.5527	145.4535	43.7500	20	-267	244	100832	0.41 
791.440	-1.1304	-0.0610	1.8457	-3.7842	12.6953	-4.8828	-0.2747	30.7013	147.6672	43.7500	18	-265	248	100833	0.41 
791.565	-1.1191	-0.0566	1.5098	3.4180	-9.2773	9.3994	-0.3735	31.4648	148.5132	43.7400	15	-270	251	100833	0.41 
791.644	-1.0078	-0.2461	1.6040	9.7046	-24.7803	12.7563	1.8402	29.2456	151.1169	43.7500	4	-274	254	100833	0.41 
791.768	-1.3901	-0.1274	2.6704	-16.1743	-17.2729	-5.1270	1.1865	29.3939	151.7212	43.7600	-5	-274	258	100833	0.41 
791.847	-0.8979	0.3018	1.9751	12.0850	6.7139	21.3013	-0.5328	27.7734	149.4196	43.7200	-5	-272	257	100834	0.41 
791.971	-1.2500	0.1748	1.5918	-0.5493	56.8848	-41.3208	-0.5219	31.0254	148.4473	43.7000	0	-276	264	100834	0.41 
792.081	-0.9185	0.2773	1.4287	-24.6582	8.1787	-2.9907	-2.9608	31.2451	146.2225	43.7100	11	-271	262	100835	0.41 
792.165	-1.1719	0.1177	1.7671	-21.7896	-2.0752	44.9829	-2.8400	32.7887	149.7821	43.7100	4	-268	264	100834	0.41 
792.290	-1.5366	-0.2920	2.5479	3.0518	6.2256	37.2925	-1.9171	32.8766	152.6385	43.7100	-10	-263	259	100835	0.41 
792.414	-0.9717	-0.0674	1.9087	-0.2441	-21.8506	17.1509	0.7581	31.5857	156.7804	43.7000	-25	-257	261	100835	0.41 
792.493	-1.0864	-0.1528	1.6538	-11.7188	8.9111	3.3569	-1.0272	32.6349	155.3577	43.6900	-28	-257	259	100835	0.41 
792.633	-0.9277	-0.1904	1.3818	16.3574	-55.1147	16.4185	-0.9778	32.2449	155.4181	43.7000	-26	-256	260	100836	0.41 
792.758	-0.9600	-0.2222	1.6338	19.7144	-37.1704	-30.5176	-0.7251	30.1135	153.4790	43.7100	-31	-258	265	100836	0.41 
792.821	-1.3066	0.1953	1.9263	-2.2583	1.1597	-5.0659	-1.5381	29.2511	150.3149	43.6900	-26	-256	271	100837	0.41 
792.930	-1.1816	-0.0688	2.3442	-8.4229	-37.9028	-38.7573	-2.8564	29.9213	149.0900	43.6800	-23	-254	274	100838	0.41 
793.024	-1.2363	-0.2471	1.5957	12.4512	32.8979	-9.6436	-0.5878	30.4761	151.5179	43.6900	-22	-253	278	100837	0.41 
793.134	-1.1836	0.1543	1.7324	-10.1929	14.8926	-14.4043	-1.3513	33.2007	148.7439	43.6800	-20	-253	282	100838	0.41 
793.258	-1.2290	0.0864	1.8462	-26.5503	-2.9297	22.8882	-2.6862	32.6514	149.6777	43.6600	-19	-248	276	100837	0.41 
793.383	-1.0283	-0.0532	1.8086	-15.5640	-16.5405	33.5083	-1.2030	30.7617	155.6982	43.6700	-30	-244	270	100838	0.41 
793.430	-1.2368	-0.5308	2.6694	10.4980	-2.8076	29.7852	-0.0165	29.0918	158.0273	43.6700	-45	-234	268	100839	0.41 
793.556	-1.0591	0.0366	1.9360	-2.9907	10.9863	2.4414	0.4944	27.9712	158.5437	43.6400	-54	-233	266	100839	0.40 
793.664	-1.0762	-0.1509	1.4717	1.5869	20.0195	-7.9956	0.3186	29.1632	158.9832	43.6500	-57	-231	265	100839	0.40 
793.789	-1.1260	-0.3271	1.8003	26.3062	11.7798	-7.2021	1.4557	30.6464	158.5272	43.6600	-55	-234	268	100839	0.40 
793.883	-1.0054	0.1299	1.9180	15.1978	12.7563	-53.4668	1.3733	30.6848	154.6051	43.6500	-52	-234	275	100839	0.40 
793.962	-1.3408	0.0371	2.6421	4.2725	16.6626	-68.0542	0.2032	31.7230	152.6880	43.6200	-47	-233	280	100840	0.40 
794.102	-0.8696	-0.2432	1.6377	10.6201	1.9531	32.5317	1.3843	30.4541	152.6276	43.6500	-39	-231	281	100840	0.40 
794.196	-1.0439	0.1704	1.4390	-8.6670	5.0049	7.4463	0.8350	32.0416	151.7761	43.6200	-35	-232	282	100841	0.40 
794.305	-0.9565	0.0752	1.0845	-11.2915	-7.0801	5.3101	0.2307	31.5472	152.6111	43.6200	-38	-232	278	100841	0.40 
794.415	-0.9048	0.2705	2.0044	-15.8081	-7.4463	23.9258	0.0439	33.2721	154.6216	43.6100	-40	-223	272	100841	0.40 
794.509	-1.3696	0.2402	2.4985	6.3477	-13.8550	8.2397	0.6427	31.6681	155.0775	43.6200	-39	-220	265	100841	0.40 
794.633	-1.0981	0.0146	1.7739	-11.1084	-10.4980	17.7002	0.6976	30.6134	155.9070	43.6200	-41	-216	269	100842	0.40 
794.743	-1.0425	-0.1978	1.5313	-0.9155	11.9019	-4.2114	-0.3955	31.5033	155.4675	43.6100	-42	-217	266	100842	0.40 
794.836	-1.1675	-0.0674	1.3926	7.9956	-8.1177	8.7280	-0.3296	32.7448	154.0503	43.6300	-37	-213	263	100843	0.40 
794.930	-0.9634	0.0146	1.6299	9.7656	-7.0190	-17.6392	-0.7306	31.8439	151.5070	43.6400	-35	-214	262	100844	0.40 
795.055	-1.2485	0.0996	2.2593	8.1787	-10.2539	-56.0913	-0.9448	31.8768	149.8370	43.6100	-27	-210	264	100844	0.40 
795.150	-0.9927	0.0654	1.7017	10.6812	8.3618	20.4468	-1.1316	31.3220	148.4033	43.6100	-24	-212	267	100844	0.40 
795.274	-1.1177	0.1074	1.4971	-4.0894	9.9487	1.0376	-0.0769	33.1622	150.1776	43.6100	-19	-214	264	100845	0.40 
795.383	-1.1050	0.0425	1.4751	-20.6909	-2.6245	-14.1602	-1.3129	33.6786	149.9194	43.6100	-20	-218	260	100845	0.40 
795.477	-0.7178	0.0474	1.7559	-14.7705	-32.2266	22.6440	-1.4392	33.0139	151.9244	43.6000	-16	-214	258	100845	0.40 
795.559	-1.1807	-0.3169	2.3398	2.9297	-10.0098	10.5591	-1.3623	31.7780	151.0620	43.6000	-17	-211	258	100846	0.40 
795.684	-1.0938	-0.1069	1.7979	-15.1978	6.7139	11.5356	-2.1588	30.5750	150.1007	43.6100	-16	-215	253	100846	0.40 
795.794	-1.0654	-0.1348	1.4561	-4.6387	10.9253	7.8735	-2.8015	31.3550	150.3424	43.6000	-16	-216	251	100846	0.40 
795.887	-1.0313	-0.2017	1.3853	3.7231	-13.7329	5.1880	-2.2028	31.3879	150.3369	43.6000	-13	-215	248	100846	0.40 
795.997	-1.3506	0.1968	2.0029	-14.2822	10.1929	19.4092	-2.7026	30.9155	148.1726	43.5900	-13	-216	250	100847	0.40 
796.121	-1.6191	0.1958	3.2476	-12.7563	16.2354	-4.9438	-3.5980	30.8826	147.7441	43.5800	-9	-213	253	100847	0.40 
796.200	-1.3042	-0.0322	1.7266	4.3945	25.1465	-0.3052	-2.2302	29.7949	148.2166	43.5900	-7	-217	248	100848	0.40 
796.324	-1.1167	0.0132	1.5977	-11.7188	6.6528	-24.1089	-3.3508	31.6022	146.0138	43.5800	-3	-221	252	100848	0.40 
796.434	-1.2173	0.0806	1.6992	-13.6108	-3.2349	5.1880	-5.2460	31.8439	144.4043	43.5700	1	-214	248	100848	0.40 
796.528	-1.3086	-0.0137	2.3335	5.7983	23.1934	3.1738	-4.9548	32.1735	144.1736	43.5600	4	-213	247	100848	0.40 
796.637	-1.4482	-0.2490	2.8540	7.4463	-4.0283	36.9873	-2.3346	31.8768	149.5129	43.5500	0	-215	247	100848	0.40 
796.762	-1.1797	0.0264	1.6626	-5.5542	25.6958	19.3481	-1.5216	32.4921	152.4133	43.5500	-6	-214	249	100848	0.40 
796.840	-1.1733	-0.1499	1.7363	10.0098	-14.0381	37.2925	-0.1813	34.4641	155.4291	43.5500	-10	-215	246	100849	0.40 
796.965	-1.1162	-0.1938	1.7305	19.2261	-23.3154	-16.2354	1.9501	33.2886	156.6486	43.5400	-15	-218	245	100849	0.40 
797.106	-1.2119	0.0938	1.8613	4.4556	2.1973	-16.4185	1.3348	32.5360	154.3524	43.5600	-15	-219	248	100848	0.40 
797.184	-1.2437	0.1357	2.3862	-7.2632	-42.6025	-8.3008	-0.2142	33.3490	151.5015	43.5600	-6	-219	249	100849	0.40 
797.278	-1.2446	-0.0869	1.5903	2.6855	17.2119	-4.8218	1.2964	32.5085	153.5669	43.5300	-10	-217	247	100849	0.40 
797.403	-1.0420	0.0698	1.3335	-5.9814	-15.5640	-15.0757	0.3790	33.0359	151.5674	43.5400	-7	-216	250	100850	0.40 
797.497	-1.0586	0.0293	1.7295	-13.7939	-14.1602	20.2637	-0.3076	32.8821	152.1606	43.5200	-6	-216	247	100850	0.40 
797.606	-1.3301	-0.1665	2.4702	0.0610	8.9722	-3.2349	-0.5878	32.2778	152.1112	43.5300	-6	-210	245	100850	0.40 
797.762	-0.8833	-0.0967	1.7671	-7.6904	-27.8320	29.9683	0.5768	31.1462	154.1437	43.5100	-7	-216	240	100851	0.40 
797.793	-1.0771	-0.1890	1.5405	-20.9961	21.3013	32.3486	-1.1920	32.6404	153.7427	43.5400	-11	-211	239	100851	0.39 
797.950	-1.0073	-0.1514	1.6152	9.7046	-17.0288	17.8833	-1.0492	33.7939	155.2753	43.5400	-7	-210	234	100851	0.39 
798.043	-1.1147	-0.1240	1.6543	11.5967	-14.3433	1.0376	-0.5273	33.1622	154.2480	43.5300	-8	-207	237	100852	0.39 
798.137	-1.5391	-0.0796	2.3071	3.8452	7.3853	-22.3999	-0.4999	32.6349	153.2483	43.5200	-10	-209	236	100852	0.39 
798.231	-0.7227	0.1182	1.6738	9.8877	-45.1660	74.4019	0.6976	29.7839	154.2206	43.5200	-6	-205	234	100852	0.39 
798.356	-1.2314	0.2041	1.7241	1.9531	6.8359	9.5825	3.8837	30.9210	159.6313	43.5100	-15	-210	235	100853	0.39 
798.434	-1.0708	0.1846	1.5977	-19.5923	-13.9771	56.2744	5.1141	31.0748	163.8281	43.5000	-25	-212	230	100854	0.39 
798.559	-1.1270	0.0767	1.8560	-30.0293	-8.2397	75.6226	6.4270	30.1685	171.3043	43.4900	-37	-208	225	100854	0.39 
798.653	-0.7461	-0.1064	1.8716	-16.0522	-37.0483	55.4810	7.2729	26.1969	179.0277	43.4900	-54	-206	218	100855	0.39 
798.778	-1.4014	-0.3638	2.3174	19.8364	8.9722	-2.5024	8.0090	26.2189	178.8794	43.5000	-66	-204	214	100856	0.39 
798.872	-1.0435	0.2178	1.7725	-19.8975	8.7280	77.9419	10.4755	25.7574	-177.5391	43.4900	-71	-207	216	100856	0.39 
798.997	-1.1104	-0.3687	1.4819	-43.7622	1.8311	136.7188	12.2003	25.2521	-164.8608	43.4800	-88	-198	211	100856	0.39 
799.106	-0.9243	-0.1396	1.7124	-12.5122	-9.0942	90.5762	13.3978	24.0216	-154.9512	43.4800	-112	-181	201	100857	0.39 
799.200	-0.8691	-0.1489	2.0640	10.7422	-24.1089	48.8281	14.6008	21.9397	-149.4800	43.4800	-129	-170	197	100857	0.39 
799.278	-1.6763	0.0303	1.8804	-28.1372	-26.0620	111.5723	16.3916	18.6823	-142.2784	43.4900	-145	-157	197	100858	0.39 
799.372	-1.2432	0.0225	1.6074	21.8506	-1.9531	68.1152	18.0450	16.7487	-135.7471	43.4800	-162	-138	194	100858	0.39 
799.481	-1.1558	0.2339	1.7139	1.1597	14.0381	52.5513	20.1929	17.7594	-132.4017	43.4800	-167	-128	192	100858	0.39 
799.606	-1.1172	0.1401	1.8398	-7.5684	7.2632	71.7773	21.3409	17.0563	-127.0184	43.4700	-172	-116	191	100858	0.39 
799.731	-1.0996	0.2676	1.9028	-13.1226	-23.0103	66.3452	21.2750	14.8206	-122.1790	43.4900	-177	-101	187	100858	0.39 
799.825	-1.2471	0.0313	2.0903	-22.9492	-13.0615	54.8706	19.0448	11.3654	-118.4436	43.4700	-181	-86	191	100859	0.39 
799.901	-1.2139	0.1860	1.8560	-8.3618	14.3433	42.6025	19.1656	10.3986	-114.2853	43.4700	-187	-67	196	100858	0.39 
800.011	-1.1318	-0.1436	1.6953	-25.2686	-6.1646	85.4492	17.5891	9.4153	-108.0231	43.4900	-185	-52	197	100859	0.39 
800.105	-1.1392	-0.2119	1.8452	-19.3481	6.9580	67.9321	15.3424	9.1187	-100.7281	43.4800	-172	-24	200	100859	0.39 
800.229	-1.0591	-0.1123	1.7993	4.5166	8.6060	45.4712	14.1943	9.3329	-94.4110	43.4600	-162	-6	198	100859	0.39 
800.308	-1.1143	-0.1260	1.9854	-1.7090	-5.4932	66.1621	14.3976	9.2010	-89.2365	43.4800	-152	0	198	100860	0.39 
800.432	-1.3525	0.1245	2.1387	-10.3760	-4.5776	91.6748	14.4415	7.6465	-81.9250	43.4700	-143	12	198	100860	0.39 
800.511	-1.3213	0.1299	1.6606	-19.5313	33.3862	113.0981	13.2220	5.8118	-71.9659	43.5100	-122	24	203	100860	0.39 
800.620	-1.1372	0.1470	1.7866	24.0479	3.3569	25.6348	13.1342	6.2402	-61.2268	43.4900	-96	37	208	100860	0.39 
800.730	-1.1821	0.1255	1.8237	0.1831	12.5122	47.9126	13.0573	6.5808	-51.3885	43.5000	-82	38	201	100860	0.39 
800.823	-1.1895	0.1738	1.7075	-10.6201	1.0986	30.7617	11.5741	6.8829	-42.1161	43.5000	-66	44	202	100859	0.39 
800.933	-1.0244	-0.0146	1.6152	-33.8135	-4.5166	9.4604	7.9816	5.9491	-34.6783	43.4900	-56	46	208	100860	0.39 
801.042	-1.0313	0.0605	1.9360	-21.0571	-12.0239	1.2207	3.8947	5.1471	-29.8663	43.5000	-54	50	216	100859	0.39 
801.182	-1.4663	-0.1733	2.5073	11.2915	23.4985	-48.8281	2.1368	5.8337	-28.8776	43.4800	-64	55	221	100860	0.39 
801.245	-1.2056	-0.0532	2.1738	9.9487	-24.3530	-12.5122	1.7578	6.2402	-26.3123	43.4800	-65	51	218	100860	0.39 
801.323	-1.2744	-0.1992	1.7095	-7.6294	15.8691	35.6445	-0.1263	8.3826	-20.5829	43.4700	-65	50	219	100860	0.39 
801.449	-1.0522	-0.1836	1.5864	14.2212	-2.3193	2.8076	-0.4779	9.9536	-15.1941	43.4500	-56	47	224	100860	0.39 
801.542	-0.9976	-0.2227	1.5396	14.3433	0.2441	1.0376	0.8075	9.9042	-10.5359	43.4600	-54	42	219	100860	0.39 
801.682	-1.3813	0.2251	2.3682	2.8687	3.7842	23.8037	0.9833	10.5359	-6.3007	43.4600	-54	37	215	100860	0.39 
801.761	-0.8433	0.3569	1.9312	8.4839	-32.3486	17.3340	0.2307	10.6897	-3.9551	43.4400	-56	35	213	100861	0.39 
801.854	-1.0864	0.0576	1.4878	8.0566	18.9209	-10.9863	0.4724	12.4036	0.8075	43.4600	-56	32	213	100861	0.39 
801.964	-1.1001	0.1758	1.6494	-12.8784	-5.9814	0.8545	-0.6812	15.5457	3.8452	43.4400	-52	35	211	100862	0.39 
802.058	-0.9893	0.2085	1.6045	-23.2544	3.8452	24.2310	-2.5049	15.4962	8.6792	43.4300	-51	36	218	100862	0.39 
802.198	-1.3047	-0.2588	1.8672	-0.7324	12.1460	15.7471	-3.5486	16.5839	16.0620	43.4400	-41	40	225	100862	0.39 
802.261	-1.2896	-0.8384	2.7324	7.9346	43.7622	-13.7329	-3.2135	18.7262	18.8086	43.4200	-34	35	226	100862	0.39 
802.355	-1.2031	-0.0269	1.7480	-19.2871	41.8091	1.4038	-3.3948	20.1654	21.3574	43.4300	-30	36	224	100863	0.39 
802.479	-1.1074	-0.2764	1.5518	-1.1597	21.4233	2.2583	-4.1693	22.9340	25.1147	43.3900	-21	37	236	100863	0.38 
802.604	-1.0762	-0.1787	1.3867	9.1553	-24.7803	-9.0332	-3.5760	22.7692	27.3779	43.4000	-18	33	231	100863	0.38 
802.654	-1.0039	-0.0063	1.6865	10.2539	-26.0620	-6.5308	-3.4058	21.3135	27.8284	43.4000	-21	31	229	100864	0.38 
802.857	-1.3564	0.3345	2.7144	13.0615	-17.8223	-66.8945	-4.8340	21.5222	26.5814	43.3800	-24	32	222	100864	0.38 
802.888	-0.8838	-0.2041	1.5220	21.7285	14.9536	8.3008	-4.0869	19.5721	28.0096	43.3900	-47	33	224	100864	0.38 
803.013	-1.1514	0.1567	1.3818	-1.9531	5.6763	-6.2256	-3.8123	22.3627	28.8391	43.3700	-50	33	221	100865	0.38 
803.091	-0.9995	0.0615	1.6099	-18.5547	-23.7427	-0.6714	-4.9109	23.1921	31.9043	43.3800	-46	32	225	100865	0.38 
803.170	-0.9658	0.1372	1.7666	-6.3477	-15.7471	30.7007	-4.8724	22.7582	36.2933	43.4000	-44	33	234	100866	0.38 
803.294	-1.3340	-0.2852	2.3398	15.5640	2.3804	-27.7100	-4.0265	23.2306	38.2489	43.3800	-40	33	229	100866	0.38 
803.373	-1.1836	-0.1548	2.0229	0.0000	-14.3433	11.6577	-3.1531	23.6920	39.5398	43.3600	-45	29	228	100866	0.38 
803.498	-1.1104	-0.1826	1.6245	-6.5308	13.3057	17.0898	-3.8617	25.6036	41.2317	43.3800	-40	33	229	100867	0.38 
803.654	-1.1172	-0.1479	1.8193	10.0098	1.0376	6.1646	-3.8232	27.2351	42.5116	43.3700	-37	33	236	100868	0.38 
803.732	-1.0283	-0.2739	1.6978	7.9346	3.9063	-1.9531	-1.8622	25.7684	44.4781	43.3700	-34	30	231	100868	0.38 
803.857	-1.5190	0.1274	2.1313	-7.6294	-1.6479	16.4795	-2.0819	26.3562	46.4722	43.3600	-36	30	229	100868	0.38 
803.935	-1.1738	0.0405	2.4541	-6.5308	-2.9907	6.8359	-1.9281	25.9991	48.0487	43.3500	-36	30	232	100868	0.38 
804.013	-1.0913	0.0396	1.6890	-4.4556	13.3667	-3.6011	-2.3346	26.7023	48.4222	43.3600	-37	30	227	100868	0.38 
804.123	-1.1455	0.0586	1.4966	-10.0098	-2.3804	1.0986	-3.1586	27.7295	49.7406	43.3200	-36	32	232	100869	0.38 
804.232	-1.3037	-0.0483	1.7544	-18.9819	18.4937	26.4893	-3.8947	28.5370	51.6357	43.3500	-39	35	230	100869	0.38 
804.326	-1.3057	-0.0688	2.1938	12.5732	4.0283	-31.4331	-4.8065	28.8776	51.0699	43.3300	-37	31	237	100870	0.38 
804.435	-1.2168	-0.3330	2.5347	11.7798	-12.8784	-23.1323	-4.3176	28.5809	50.6085	43.3200	-40	32	235	100870	0.38 
804.498	-1.1206	-0.0142	1.6445	7.5684	0.0610	-9.6436	-4.2957	28.6469	49.6362	43.3100	-46	33	233	100871	0.38 
804.654	-1.1011	-0.0884	1.3516	10.8032	-8.4839	1.7700	-3.7903	29.1852	50.4163	43.2900	-48	29	231	100871	0.38 
804.717	-0.9712	-0.0415	1.6743	7.3853	-14.2822	3.4790	-2.6477	28.7512	51.8884	43.2800	-46	27	230	100871	0.38 
804.857	-1.3735	-0.0435	2.5967	5.1270	5.6152	-30.8228	-2.5269	28.7292	53.4155	43.2700	-49	26	230	100871	0.38 
804.935	-0.9468	0.2031	1.7725	10.6201	4.3945	11.5356	-3.1256	27.7789	51.9159	43.2700	-58	31	231	100872	0.38 
805.045	-1.2354	0.0977	1.6470	-0.6104	28.6865	-28.8086	-3.4827	30.3717	51.8829	43.2700	-59	25	229	100873	0.38 
805.123	-0.9951	0.2358	1.4902	-8.9722	7.3853	-2.5635	-4.7461	30.3113	51.4984	43.2600	-59	27	227	100873	0.38 
805.248	-1.0610	0.0479	1.6992	-15.9912	-14.5264	28.6865	-3.7958	31.1298	56.9257	43.2400	-57	30	231	100873	0.38 
805.357	-1.3730	-0.2349	2.3457	4.8218	-4.3945	22.1558	-3.0927	30.5035	60.0732	43.2600	-50	31	233	100874	0.38 
805.467	-1.2192	-0.0151	2.2837	8.9722	-15.0757	2.7466	-2.3291	30.5145	60.6775	43.2600	-49	30	236	100874	0.38 
805.560	-1.1260	-0.1069	1.5088	-5.1270	10.9253	19.5923	-1.9446	31.1078	62.4518	43.2800	-42	32	238	100874	0.38 
805.701	-1.0615	-0.1680	1.5264	8.6060	-17.5171	17.9443	-1.0876	32.0306	64.4513	43.2600	-40	34	239	100874	0.38 
805.779	-1.0288	-0.0171	1.8125	22.5830	-31.9824	-32.3486	-0.6427	29.3170	62.0398	43.2600	-40	32	235	100875	0.37 
805.873	-1.4595	-0.2256	2.5737	0.3662	-10.3760	-62.6831	-1.1755	28.4546	61.4685	43.2400	-48	27	232	100875	0.37 
805.998	-0.9033	0.1514	1.9136	6.1035	-28.8696	17.3950	-1.6479	26.7407	60.4907	43.2400	-64	28	233	100875	0.37 
806.123	-1.1787	0.1328	1.6362	-5.8594	21.1792	-12.0239	-2.1588	28.1085	60.1996	43.2300	-64	25	232	100876	0.37 
806.201	-1.0498	0.0366	1.3994	-4.6387	1.0986	-6.8970	-2.9608	28.9050	60.4248	43.2300	-63	25	233	100876	0.37 
806.326	-0.9468	0.4775	1.8301	-5.7983	2.0752	38.1470	-2.6038	30.0201	62.3639	43.2200	-67	29	233	100877	0.37 
806.404	-1.3262	-0.1660	2.2437	2.7466	14.7095	10.0098	-1.0382	30.3497	65.9509	43.2200	-58	30	239	100877	0.37 
806.514	-1.3823	-0.0771	2.5918	14.4043	-33.5083	26.2451	0.6647	30.7452	67.8241	43.2300	-50	30	235	100877	0.37 
806.623	-1.2520	-0.1274	1.7417	-18.0054	31.6772	6.8970	-0.0220	31.4703	68.4888	43.2100	-45	32	234	100878	0.37 
806.686	-1.1860	-0.1372	1.8379	5.1270	-0.9155	-11.8408	-1.4996	33.7830	67.2528	43.2100	-43	34	237	100878	0.37 
806.811	-1.0684	-0.1274	1.7974	25.1465	-22.2778	-22.3389	-1.4172	31.9757	64.7919	43.2100	-52	33	238	100879	0.37 
806.920	-1.3833	0.0913	1.9297	1.5259	14.7705	3.8452	-0.2692	31.8164	65.5499	43.1900	-53	30	232	100879	0.37 
807.092	-1.2612	0.4204	2.5532	-5.0659	-35.2783	6.7139	-1.4172	31.8439	64.2700	43.2000	-55	29	230	100880	0.37 
807.139	-1.2256	-0.0664	1.7378	7.0801	29.4189	2.0142	1.1920	31.7230	68.1537	43.2000	-56	29	230	100880	0.37 
807.217	-1.2759	0.0830	1.7559	-13.7329	6.4087	-4.0894	0.7086	33.2227	68.4229	43.1900	-50	31	229	100880	0.37 
807.342	-1.1816	0.2837	1.8091	-25.8179	31.1279	26.4282	-0.1208	33.1512	70.3125	43.1800	-52	34	233	100880	0.37 
807.436	-1.4072	0.0156	2.3076	-3.4790	38.3301	-38.2690	-1.0217	34.0027	71.0980	43.2000	-47	38	233	100880	0.37 
807.561	-1.4541	-0.4277	2.8359	2.9907	15.2588	-51.2695	-1.2744	33.1842	69.5599	43.2000	-46	38	238	100881	0.37 
807.655	-1.1357	-0.0376	1.7646	-3.8452	14.2212	-36.1328	-3.4332	32.2559	65.0830	43.1700	-60	40	233	100881	0.37 
807.795	-1.1587	-0.0957	1.6045	-2.5024	-1.7090	3.5400	-3.9990	32.9425	64.0887	43.1700	-64	38	236	100882	0.37 
807.904	-1.1274	-0.1582	1.6592	20.1416	-19.8975	-0.3662	-2.2083	30.8551	64.3304	43.1400	-67	39	231	100882	0.37 
807.952	-1.5347	0.0166	2.3384	4.4556	-17.2729	-21.1182	-1.9666	28.9819	61.9409	43.1700	-75	34	229	100882	0.37 
808.076	-1.3057	-0.2007	2.7476	-21.9116	3.7842	71.1060	-0.1044	28.0756	66.1487	43.1500	-83	36	229	100883	0.37 
808.170	-1.0396	0.1680	1.5737	-0.1831	11.7798	28.6865	0.1318	27.7075	66.3025	43.1300	-81	34	229	100883	0.37 
808.279	-1.1270	0.0859	1.6841	-14.0381	8.1177	4.5166	0.3241	30.0366	67.3517	43.1300	-74	37	229	100884	0.37 
808.389	-1.1528	0.0361	1.6074	-20.9961	29.1138	2.0142	-0.9668	30.7013	67.7087	43.1200	-74	38	232	100884	0.37 
808.467	-0.9834	-0.0186	1.5908	-10.0098	-13.5498	3.2349	-2.4664	31.4594	67.1649	43.1200	-72	42	237	100885	0.37 
808.592	-1.3628	-0.2422	2.3994	-7.6294	17.1509	50.5981	-3.0103	32.6459	65.8850	43.1100	-73	44	237	100885	0.37 
808.702	-1.0234	-0.0273	1.5322	-7.9346	28.6865	-27.7710	-3.5321	32.9810	64.3469	43.1100	-72	47	240	100886	0.37 
808.796	-1.2070	-0.2095	1.9443	1.9531	-6.9580	-0.6714	-5.5151	35.3430	61.4960	43.1100	-72	47	241	100886	0.37 
808.920	-1.4189	0.1421	2.2212	11.9019	21.0571	-3.2349	-4.9988	35.0409	59.5514	43.1100	-72	46	241	100887	0.37 
809.029	-1.1885	0.0166	1.8276	-7.1411	4.4556	-12.3291	-4.5483	34.8816	59.9854	43.1000	-71	47	241	100887	0.36 
809.154	-1.1792	-0.0684	1.8066	0.4272	-0.6104	17.7002	-4.3726	34.8376	60.6555	43.0800	-72	46	240	100887	0.36 
809.217	-1.3613	-0.1104	1.9766	7.0190	6.8359	-7.2021	-3.1256	35.1123	61.2103	43.1000	-68	43	242	100886	0.37 
809.326	-1.1821	0.0166	1.8516	-0.2441	-7.8735	21.9727	-2.2302	34.3982	61.8201	43.0900	-68	46	240	100887	0.37 
809.436	-1.2383	-0.0913	1.8755	-1.1597	-4.6387	-0.7935	-1.6919	33.6511	62.6001	43.0900	-66	42	241	100887	0.37 
809.530	-1.1978	-0.0923	1.8467	-5.9814	-5.8594	-4.0894	-2.2961	32.9810	61.8860	43.1000	-63	45	243	100886	0.37 
809.654	-1.1841	-0.0552	1.8647	-0.4883	-4.0283	-18.4326	-3.1970	32.3438	60.0238	43.1000	-66	45	243	100886	0.37 
809.733	-1.1763	-0.0630	1.8604	-1.2817	-2.6855	-13.9771	-4.2242	31.9098	57.5519	43.1200	-74	45	245	100886	0.37 
809.858	-1.1587	-0.0732	1.8560	-1.4038	-0.8545	-12.3901	-5.0867	31.6351	55.4535	43.1200	-77	43	244	100886	0.37 
809.983	-1.1587	-0.0669	1.8550	-0.4883	-0.8545	-4.9438	-5.4492	31.4703	54.1296	43.1200	-85	46	245	100886	0.37 
810.061	-1.1528	-0.0854	1.8569	0.1831	-0.4272	0.7935	-5.3558	31.3879	53.4869	43.1400	-83	45	246	100885	0.37 
810.217	-1.1377	-0.1001	1.8525	-0.6714	-0.3662	2.9297	-5.0757	31.3770	53.2617	43.1400	-83	43	243	100885	0.37 
810.295	-1.1372	-0.1123	1.8608	-0.3662	0.9766	1.4038	-4.9274	31.3879	52.8772	43.1200	-82	43	244	100885	0.37 
810.389	-1.1357	-0.0962	1.8682	0.1831	-0.5493	-0.4272	-4.8230	31.3440	52.3499	43.1400	-82	44	245	100886	0.37 
810.514	-1.1411	-0.0825	1.8496	0.7935	-1.2207	2.1973	-4.6033	31.1902	52.0587	43.1500	-84	43	241	100885	0.37 
810.608	-1.1323	-0.0703	1.8711	0.0610	-2.3804	7.2632	-4.1418	31.0089	52.0862	43.1600	-85	46	246	100885	0.37 
810.702	-1.1387	-0.0908	1.8745	-0.3662	-1.4648	4.6387	-3.7189	30.8057	52.3938	43.1600	-79	46	242	100886	0.37 
810.826	-1.1577	-0.0923	1.8687	0.5493	-0.6714	0.0610	-3.5156	30.7178	52.1851	43.1600	-80	47	243	100886	0.37 
810.951	-1.1245	-0.0942	1.8774	-1.1597	-1.8921	1.6479	-3.4442	30.6464	51.8939	43.1600	-82	44	241	100886	0.37 
811.045	-1.1343	-0.0918	1.8760	-1.4038	-0.8545	5.9204	-3.2904	30.5365	51.8884	43.1400	-80	46	242	100886	0.37 
811.139	-1.1216	-0.1060	1.8701	-0.9766	-1.0986	5.2490	-3.0322	30.4541	52.1851	43.1500	-80	44	245	100885	0.37 
811.280	-1.1191	-0.1045	1.8799	-0.4272	-1.2207	3.4790	-2.8839	30.3552	52.1741	43.1600	-79	45	245	100885	0.37 
811.342	-1.1255	-0.1016	1.8735	-0.2441	-1.0986	0.7935	-2.7631	30.2509	51.9049	43.1400	-78	47	242	100886	0.37 
811.436	-1.1270	-0.0879	1.8721	0.2441	-0.3662	2.4414	-2.6752	30.2618	51.6797	43.1500	-74	47	243	100886	0.37 
811.545	-1.1270	-0.0830	1.8657	0.9155	0.1831	2.0142	-2.4939	30.2838	51.6412	43.1600	-73	48	248	100886	0.37 
811.686	-1.1128	-0.0952	1.8726	-0.3662	2.2583	0.3662	-2.4390	30.4431	51.5039	43.1600	-74	47	247	100886	0.37 
811.764	-1.1255	-0.0923	1.8613	-0.6104	2.7466	-1.0986	-2.5488	30.8112	51.1853	43.1500	-73	47	243	100886	0.37 
811.873	-1.1299	-0.1069	1.8545	0.3052	1.5259	-1.0376	-2.6312	31.1517	50.8667	43.1400	-74	47	245	100886	0.37 
811.967	-1.1343	-0.0811	1.8335	1.4038	3.1738	-1.8311	-2.7301	31.4594	50.3394	43.1400	-72	48	244	100886	0.37 
812.077	-1.1499	-0.0796	1.8496	3.4180	2.3804	1.6479	-2.5159	31.8768	50.1746	43.1500	-73	49	245	100886	0.37 
812.170	-1.1455	-0.0439	1.8267	1.1597	7.3242	2.8076	-2.0654	32.4811	50.2515	43.1500	-71	48	243	100886	0.37 
812.280	-1.1694	-0.0630	1.8530	-1.0376	6.1646	8.9722	-1.8237	33.1677	50.7019	43.1700	-69	49	240	100886	0.37 
812.374	-1.1777	-0.0767	1.8584	-1.9531	1.5869	6.2866	-1.5710	33.4698	51.5533	43.1700	-64	46	244	100886	0.37 
812.499