step 20
StartTime: 2017-07-11 15:59:09.180
Time(s)	ax(g)	ay(g)	az(g)	wx(deg/s)	wy(deg/s)	wz(deg/s)	AngleX(deg)	AngleY(deg)	AngleZ(deg)	T(°)	hx	hy	hz	Pressure(Pa)	Altitude(m) 
74.519	-1.0044	-0.0459	1.8306	0.6104	1.9531	-11.1084	-1.3293	29.4214	116.4386	37.3700	121	-126	274	100818	0.42 
74.676	-1.0283	-0.0327	1.9028	2.3804	1.1597	-6.4087	-1.3513	29.4818	115.9003	37.3800	122	-126	276	100818	0.42 
74.769	-1.0649	-0.0029	1.8862	-0.2441	-1.5259	-3.7842	-1.4447	29.4653	115.4224	37.3700	123	-122	276	100818	0.42 
74.848	-1.0747	-0.0103	1.9058	-1.8311	-1.8311	5.3101	-1.5051	29.3390	115.5322	37.3900	121	-126	276	100818	0.42 
74.957	-1.0303	-0.0425	1.8760	-1.1597	2.0142	9.3994	-1.0327	29.2236	116.7023	37.4000	122	-125	275	100818	0.42 
75.113	-1.0591	-0.0415	1.8745	-0.7935	0.1831	2.0142	-0.7910	29.3225	117.3669	37.4100	121	-130	272	100818	0.42 
75.160	-1.0420	-0.0474	1.8784	-2.3804	-0.4272	-2.9907	-0.9778	29.3445	117.3175	37.4100	119	-130	274	100818	0.42 
75.254	-1.0410	-0.0518	1.8882	0.9155	-4.2725	5.7373	-0.9613	29.2181	117.4768	37.4200	121	-128	273	100818	0.42 
75.364	-0.9702	-0.0566	1.8838	4.6997	-6.7139	-6.6528	-0.8075	28.6633	117.2681	37.4200	121	-126	273	100818	0.42 
75.473	-1.0317	-0.0591	1.9014	0.4883	0.3052	-0.1221	-0.8130	28.3337	116.6858	37.4300	120	-125	273	100818	0.42 
75.582	-1.0396	-0.0669	1.8730	5.4932	0.7324	12.8784	-0.4010	28.7677	117.2571	37.4300	120	-128	269	100818	0.42 
75.691	-1.0278	-0.0327	1.8994	9.8877	4.3335	11.2915	0.7196	29.0314	118.3228	37.4500	121	-132	275	100817	0.42 
75.801	-1.0732	0.0244	1.8940	9.7656	9.7046	13.9771	2.6257	29.6906	120.0366	37.4400	126	-137	275	100817	0.42 
75.895	-0.9946	0.1089	1.8940	10.7422	4.0894	3.4180	4.0320	30.3882	121.1902	37.4500	125	-141	279	100817	0.42 
75.989	-0.9331	0.1460	1.8335	9.9487	1.8311	-11.4136	4.5428	30.1685	120.6024	37.4800	125	-143	281	100817	0.42 
76.113	-0.9614	0.1177	1.8462	9.5825	5.7983	-8.0566	5.0592	30.7397	119.9103	37.4600	125	-138	282	100817	0.42 
76.223	-0.9292	0.1421	1.8511	-3.7231	2.8687	-6.3477	4.7461	30.8331	119.2731	37.4700	130	-141	284	100817	0.42 
76.317	-0.8872	0.1875	1.8975	-6.5918	6.4087	-2.0142	3.9496	30.8881	119.1028	37.4800	132	-141	285	100817	0.42 
76.426	-0.8242	0.1250	2.0313	-7.3853	-6.3477	-8.4839	3.2574	30.8551	119.1687	37.4700	136	-139	287	100818	0.42 
76.551	-1.1875	0.0728	1.8486	-15.5029	-8.4839	-5.0049	2.2687	29.7839	118.9325	37.4700	136	-138	282	100818	0.42 
76.676	-1.1924	0.0308	1.8198	-12.3291	1.0986	-6.3477	0.4889	29.8169	117.6581	37.4600	135	-130	279	100818	0.42 
76.754	-1.1211	-0.0967	1.7598	-24.3530	4.2725	51.0254	0.2197	30.2948	120.7837	37.4500	136	-130	279	100818	0.42 
76.910	-1.0308	-0.1826	1.7983	-12.2070	7.5684	18.3105	-0.1813	30.9265	123.8214	37.4300	140	-137	285	100818	0.42 
76.973	-0.9507	-0.1182	1.8257	7.7515	10.3760	14.4653	0.4340	31.7175	125.2002	37.4300	142	-138	284	100818	0.42 
77.067	-0.9468	-0.0684	2.0942	11.4746	-13.3667	11.1694	1.6589	31.0529	125.2716	37.4200	145	-141	286	100819	0.42 
77.177	-1.2285	-0.2290	2.0000	-3.3569	-15.2588	26.4893	3.0432	27.9932	126.9250	37.4300	145	-147	279	100819	0.42 
77.270	-1.0708	-0.1606	1.8003	7.0190	-3.6621	0.6104	2.4005	27.7954	126.6504	37.4400	139	-147	268	100818	0.42 
77.395	-1.1362	0.2002	1.8188	20.8130	-2.6245	-42.4805	1.6150	28.1415	121.9318	37.4200	143	-139	265	100819	0.42 
77.473	-0.9629	0.1982	1.7061	12.9395	-10.5591	-17.5781	2.1204	27.7240	119.1028	37.4200	145	-134	263	100818	0.42 
77.613	-0.8677	-0.0054	1.8394	0.8545	-5.0049	2.1362	2.6422	27.3065	119.1193	37.4200	142	-134	254	100818	0.42 
77.692	-0.6899	0.0444	2.1689	-2.3193	-24.6582	2.1362	2.4280	26.1749	118.2513	37.4000	138	-128	252	100818	0.42 
77.801	-1.2842	-0.0879	1.7266	19.0430	-13.9771	-21.4844	1.1426	24.7083	114.2303	37.4100	135	-126	239	100819	0.42 
77.895	-1.1177	0.2046	1.8369	-22.8882	5.4321	9.2773	0.8295	25.1202	114.1754	37.4000	131	-120	234	100819	0.42 
78.020	-0.9365	-0.1611	1.7988	-19.7144	5.2490	22.4609	-0.4779	25.8728	117.3889	37.4100	129	-120	231	100819	0.42 
78.145	-0.8267	-0.1250	1.7002	-1.4038	15.0757	0.0000	-1.1865	26.6254	118.0481	37.4000	134	-119	232	100819	0.42 
78.208	-0.8999	-0.3848	2.0757	-2.3804	-3.2959	12.6343	-0.2856	26.7902	119.5752	37.4100	138	-121	231	100819	0.42 
78.364	-1.2397	-0.1030	1.9854	-7.6294	-9.5825	38.9404	0.3461	24.6753	120.9979	37.3900	127	-123	224	100819	0.42 
78.427	-0.8809	-0.3579	1.6880	6.4087	5.1270	28.9917	0.3845	24.3292	123.8873	37.3900	122	-127	221	100820	0.42 
78.567	-0.9795	0.2847	1.7310	26.3062	1.0376	-41.5039	0.2856	25.8838	120.1959	37.4000	119	-132	218	100820	0.42 
78.630	-0.9072	0.1499	1.7183	10.0708	1.7700	-9.9487	1.2964	26.4166	118.3228	37.3800	122	-131	221	100820	0.42 
78.754	-0.7690	-0.0381	1.8452	3.0518	-7.8735	-6.8359	1.7798	26.2573	118.2239	37.4000	119	-130	220	100819	0.42 
78.833	-0.6865	-0.3403	2.3457	-4.6387	-13.6108	5.9204	1.9391	25.6915	118.4161	37.3900	117	-135	222	100820	0.42 
78.957	-1.1392	0.0190	1.6714	18.0664	-5.5542	-10.0708	1.3348	24.5984	114.7467	37.3900	113	-130	218	100819	0.42 
79.067	-1.0996	0.1279	1.7554	-23.8647	4.6387	19.0430	0.7196	25.3894	115.5157	37.3800	110	-128	223	100820	0.42 
79.176	-0.9297	-0.1270	1.7930	-15.1978	-2.0752	12.8174	-0.5109	26.2738	118.0536	37.3700	109	-129	228	100820	0.42 
79.270	-0.8267	-0.0229	1.8203	-0.9155	9.0332	1.1597	-1.0767	26.7352	118.5919	37.3700	109	-128	231	100819	0.42 
79.395	-0.8218	-0.3359	2.2588	-8.5449	-9.2163	-29.6631	-0.4230	25.9991	120.8057	37.3600	111	-134	231	100820	0.42 
79.489	-1.5459	-0.0913	2.0874	-22.0337	-3.8452	27.7100	0.3241	24.0436	123.8763	37.3800	108	-137	232	100820	0.42 
79.614	-0.9409	-0.4814	1.7588	12.8784	15.1367	-2.8076	0.9943	24.4116	126.7548	37.3800	105	-143	233	100820	0.42 
79.692	-0.8784	0.2827	1.6543	22.8882	13.6108	-37.1704	1.0492	25.9058	122.1570	37.3700	110	-144	233	100821	0.42 
79.817	-0.8652	0.2021	1.6904	6.5918	8.2397	-10.9863	1.4886	26.8561	120.1630	37.3600	116	-139	238	100821	0.42 
79.895	-0.8169	0.0557	1.9331	1.0986	-11.9629	-18.2495	1.5710	27.1692	120.0916	37.3700	119	-138	243	100822	0.42 
80.020	-0.8413	-0.2148	2.2861	-3.4180	-21.9116	-50.7813	0.8130	25.8179	119.3445	37.3700	116	-132	240	100822	0.42 
80.129	-0.9897	0.1167	1.7686	8.3008	-5.1880	31.9214	1.1975	25.0763	116.3342	37.3800	114	-128	241	100822	0.42 
80.223	-1.0752	0.0098	1.7134	-29.2969	3.7842	32.1045	0.2692	26.0980	118.3667	37.3700	113	-129	241	100823	0.42 
80.317	-0.8989	-0.1367	1.7412	-5.4321	3.6621	4.5166	-0.5548	27.2900	121.1847	37.3600	117	-130	246	100822	0.42 
80.427	-0.8574	0.1743	1.9761	8.3618	0.7324	17.5171	-0.6207	28.3942	120.7562	37.3600	117	-131	250	100823	0.42 
80.521	-0.5371	0.3545	2.1846	-2.0142	-34.6680	-19.4092	-0.2417	26.6144	121.7560	37.3600	119	-133	253	100823	0.42 
80.645	-1.3462	0.1079	1.6387	-14.7095	-8.7891	13.6719	0.0549	25.1038	125.2167	37.3700	114	-135	249	100822	0.42 
80.724	-1.2080	-0.1812	1.9404	18.2495	19.8364	-62.6831	0.2802	26.4935	124.2773	37.3600	114	-136	248	100823	0.42 
80.848	-0.8804	0.1709	1.7217	14.5264	11.6577	-23.8647	0.7471	27.2021	119.8334	37.3600	119	-130	253	100823	0.42 
80.927	-0.8608	0.1992	1.7231	-10.6812	10.4370	-0.8545	0.4559	27.9492	118.6908	37.3600	121	-126	257	100823	0.42 
81.052	-0.9136	0.2817	2.0859	3.2959	-1.8311	-12.5732	-0.5054	27.8229	117.9877	37.3800	127	-123	260	100823	0.42 
81.146	-1.4731	0.0977	1.9438	16.9678	-21.8506	-55.2979	-1.2085	26.0101	115.9772	37.3600	130	-123	259	100823	0.42 
81.270	-1.0132	0.3438	1.7178	-10.3760	2.8687	4.1504	0.3900	25.7794	115.5652	37.3600	130	-117	253	100823	0.42 
81.411	-0.9629	-0.3145	1.7305	-24.7192	9.8267	48.2788	-0.0220	27.0264	119.5972	37.3500	130	-118	255	100822	0.42 
81.458	-0.8594	-0.1416	1.7007	-0.8545	9.1553	-2.0752	-0.3735	27.8229	121.2891	37.3600	134	-126	259	100823	0.42 
81.630	-0.8149	0.1382	1.9141	3.0518	-14.9536	38.8794	0.2087	28.2184	121.7065	37.3400	139	-128	259	100823	0.42 
81.676	-0.9570	0.2783	2.2397	-2.9907	-20.2026	53.5278	0.4669	26.3672	122.7448	37.3600	141	-129	257	100823	0.42 
81.786	-1.0967	-0.0293	1.8335	-3.6011	7.5073	32.7759	0.1318	26.3452	125.4694	37.3700	137	-136	252	100822	0.42 
81.895	-1.1821	0.0073	1.8853	21.0571	17.5171	-68.8477	-0.3241	27.8778	121.4868	37.3700	140	-133	250	100822	0.42 
82.005	-0.9199	0.1577	1.7622	9.5215	10.4370	-11.8408	0.3406	28.9160	118.0811	37.3600	143	-126	251	100822	0.42 
82.083	-0.8779	0.0493	1.8325	-6.6528	4.2114	3.7231	0.3406	29.4708	117.9767	37.3500	147	-126	256	100822	0.42 
82.239	-0.9023	0.3071	2.1797	4.6387	-12.5732	15.6250	0.2747	28.5809	117.4658	37.3500	147	-123	250	100822	0.42 
82.333	-1.6025	0.0186	2.0269	28.1982	-12.0850	-40.3442	0.1318	26.5210	114.7961	37.3400	146	-121	243	100823	0.42 
82.412	-1.1313	0.3574	1.8462	-14.0991	8.8501	-5.2490	0.8899	26.8176	114.2468	37.3600	143	-118	238	100823	0.42 
82.521	-0.9351	-0.1973	1.7700	-24.4141	17.8223	31.7993	0.2472	28.0371	118.2294	37.3500	145	-123	242	100823	0.42 
82.615	-0.8579	-0.1621	1.7397	-2.6855	11.9629	-4.1504	-0.5713	29.0314	119.1962	37.3500	150	-125	243	100823	0.42 
82.739	-0.8594	0.0234	2.0381	9.6436	-16.8457	27.7100	0.1044	29.5752	119.4049	37.3300	156	-126	247	100823	0.42 
82.833	-0.8643	0.3389	2.1826	0.1221	-24.5972	69.0918	0.7965	27.5812	120.8716	37.3500	154	-131	240	100823	0.42 
82.943	-1.1245	0.1211	1.7437	-11.3525	1.8921	19.8975	0.7361	27.0978	124.6069	37.3500	148	-137	233	100824	0.42 
83.036	-1.1450	0.0791	1.8936	21.1792	13.8550	-55.6030	0.7581	28.5040	122.6459	37.3500	148	-137	234	100824	0.42 
83.146	-0.9395	0.1108	1.7603	13.0005	3.9063	-11.9019	1.5656	29.1083	119.6082	37.3400	152	-131	231	100824	0.42 
83.255	-0.9033	0.0073	1.8027	-2.6855	5.4932	-0.9766	2.0105	29.5477	119.4763	37.3500	154	-131	229	100824	0.42 
83.364	-0.9517	0.3818	1.9917	1.8921	7.0801	18.9819	1.5601	28.8885	118.5315	37.3600	156	-128	226	100824	0.42 
83.505	-1.6543	0.2412	2.1489	35.2173	-16.9678	-44.2505	0.4889	27.7789	115.3235	37.3500	152	-126	220	100824	0.42 
83.583	-1.2085	0.3433	1.9263	-16.4185	10.7422	-4.2725	1.2799	28.2019	114.5050	37.3500	147	-122	211	100824	0.42 
83.677	-1.0273	-0.2500	1.7856	-17.8833	6.7139	11.4746	0.1593	28.3722	117.1527	37.3200	145	-119	215	100824	0.42 
83.771	-0.8789	-0.0654	1.7134	-5.7983	5.6763	0.8545	-0.7361	28.4985	117.2571	37.3200	144	-122	212	100823	0.42 
83.880	-0.9106	-0.0469	1.9404	1.2817	0.1221	20.0195	-0.1593	29.6466	118.3063	37.3300	146	-119	213	100823	0.42 
83.989	-0.7925	0.2598	2.2520	-4.2725	-11.5356	15.6860	0.4944	28.3612	120.1080	37.3400	145	-128	214	100823	0.42 
84.130	-1.2559	0.1274	1.5537	-15.9912	-9.3994	8.3618	-0.0879	26.6803	122.8217	37.3500	135	-127	205	100824	0.42 
84.177	-1.1445	-0.0713	1.9697	15.7471	4.0283	-57.2510	-0.6207	27.7515	121.5143	37.3400	131	-128	205	100824	0.42 
84.349	-0.9448	0.0723	1.7642	15.9302	12.2681	-21.1182	0.2142	28.1305	118.1854	37.3500	130	-122	205	100824	0.42 
84.411	-0.8618	0.1914	1.7642	-0.3662	8.3618	1.4648	0.7910	28.5425	117.4988	37.3700	135	-124	201	100824	0.42 
84.507	-0.8618	0.1621	1.9258	-1.7090	-8.4229	-7.1411	0.6647	28.2953	117.9712	37.3600	131	-123	208	100824	0.42 
84.617	-0.6958	-0.2070	2.1694	0.2441	-22.7661	-23.6206	1.2360	26.3507	119.4049	37.3600	126	-121	203	100823	0.42 
84.711	-1.0513	-0.2119	1.6816	9.8267	-1.4648	-9.9487	0.9229	25.2521	116.2738	37.3700	119	-121	199	100823	0.42 
84.835	-1.0332	0.0361	1.9292	-23.9868	3.4180	22.4609	0.4285	26.0980	116.8671	37.3500	120	-118	198	100823	0.42 
84.914	-0.9268	-0.1182	1.8257	-11.7188	13.8550	13.0005	-0.8569	27.0099	119.0424	37.3500	123	-118	200	100823	0.42 
85.039	-0.8774	-0.0112	1.7432	-0.8545	17.8223	0.3052	-1.5106	28.3173	119.0588	37.3500	128	-118	209	100823	0.42 
85.164	-0.8433	-0.2539	1.9434	6.6528	-5.7983	24.4751	-0.0604	28.6359	120.6958	37.3700	130	-118	210	100823	0.42 
85.242	-0.8047	0.0488	1.9370	-2.7466	-28.4424	52.7344	0.7965	26.4496	122.3163	37.3500	125	-126	204	100823	0.42 
85.383	-1.1147	0.1685	1.6909	-8.0566	5.4932	15.9912	0.4340	25.7959	124.8651	37.3600	115	-131	198	100823	0.42 
85.446	-1.0513	-0.0400	1.9731	19.6533	4.2725	-63.0493	-0.4285	27.2461	121.8054	37.3600	115	-127	198	100823	0.42 
85.586	-0.9546	0.1563	1.7573	12.7563	12.4512	-32.5317	-0.5658	28.4601	116.8451	37.3800	121	-120	205	100823	0.42 
85.649	-0.8853	0.0884	1.7988	-6.2256	10.8032	0.7324	-0.7635	29.5422	115.6641	37.3700	124	-113	207	100824	0.42 
85.773	-0.8730	0.2661	2.0054	1.0376	-7.4463	-9.5215	-1.2854	29.3335	115.4498	37.3600	125	-113	209	100824	0.42 
85.852	-1.1196	-0.0156	2.1421	9.4604	-27.2827	-50.5981	-1.6644	27.4164	114.7522	37.3600	118	-112	204	100824	0.42 
86.008	-1.0234	0.1685	1.8428	3.4180	13.0615	6.8970	-0.4944	26.4825	113.3954	37.3600	109	-108	199	100824	0.42 
86.087	-1.0508	-0.0903	1.8682	-20.8130	-2.7466	69.4580	0.1703	27.1527	117.6636	37.3500	108	-108	202	100825	0.42 
86.211	-0.9819	-0.1226	1.7642	-10.8643	6.2866	32.5928	0.6097	27.7679	122.5580	37.3200	105	-113	204	100824	0.42 
86.305	-0.8770	-0.0352	1.8369	4.0283	11.6577	7.6294	0.6152	28.8171	123.7830	37.3500	110	-119	206	100824	0.42 
86.555	-0.9224	-0.3403	2.0381	1.8311	-6.5918	7.5073	1.6809	28.7787	125.1508	37.3400	111	-122	207	100824	0.42 
86.571	-1.0205	-0.1138	2.1118	-11.7798	-16.1743	36.3770	2.4719	26.3397	126.9250	37.3600	104	-128	205	100825	0.42 
86.602	-1.0352	-0.1016	1.8823	-3.2349	12.9395	15.7471	1.4172	26.2628	128.6884	37.3600	98	-127	205	100825	0.42 
86.711	-1.0239	0.1870	1.7949	27.7710	0.4272	-59.5703	0.8130	27.4988	124.5355	37.3600	99	-124	210	100825	0.42 
86.836	-0.9429	0.1538	1.7339	12.3901	9.7656	-26.3062	1.2634	28.8062	120.8826	37.3500	102	-122	213	100825	0.42 
86.992	-0.9053	0.0342	1.7817	-7.2632	6.7139	8.9111	1.5875	29.3994	121.0474	37.3600	107	-117	219	100825	0.42 
87.039	-0.9326	0.4126	2.0547	0.1831	-4.2725	-5.3101	0.8514	28.7292	120.3003	37.3500	106	-119	220	100825	0.42 
87.124	-1.2949	0.1924	2.1865	17.2729	-13.3667	-49.5605	0.2911	26.8835	118.1140	37.3500	101	-113	222	100825	0.42 
87.246	-1.1582	0.2583	1.9219	-5.2490	15.3809	8.9722	1.1316	27.1033	117.2461	37.3500	97	-114	219	100825	0.42 
87.324	-0.9980	-0.1772	1.7080	-18.9819	-4.7607	47.4243	1.3019	27.6416	121.2946	37.3400	98	-114	221	100825	0.42 
87.464	-0.9575	-0.1255	1.7627	-6.6528	3.7842	12.3291	0.9174	28.0920	123.6017	37.3400	95	-118	222	100825	0.42 
87.543	-0.8618	0.0112	1.7861	9.3994	1.7090	16.0522	1.4337	28.3118	124.7772	37.3400	96	-119	224	100825	0.42 
87.683	-0.7979	-0.0620	1.9614	14.5874	-20.2637	35.8276	4.0320	27.4878	127.5183	37.3300	97	-124	226	100825	0.42 
87.824	-1.0269	0.0576	2.3999	-0.0610	10.9253	41.7480	6.3666	25.8948	130.9790	37.3500	89	-138	227	100825	0.42 
87.871	-1.3770	0.2280	1.9556	-2.1362	11.9629	-4.8218	5.5756	27.2076	132.5610	37.3500	88	-142	231	100825	0.42 
88.011	-1.1030	0.0874	1.7339	11.7188	8.2397	-50.9033	5.3943	28.3228	129.9573	37.3300	94	-145	230	100825	0.42 
88.074	-1.1079	0.1045	1.8667	8.1787	-16.0522	-9.5215	4.8230	28.7347	127.4963	37.3200	96	-137	234	100825	0.42 
88.168	-1.0508	0.1616	1.7949	0.0610	-20.6299	-22.9492	4.2407	27.7185	125.2716	37.3200	91	-138	238	100825	0.42 
88.277	-1.0542	0.0889	2.0239	-10.0098	-8.1177	1.5869	3.0872	26.1749	124.0961	37.3400	87	-130	232	100825	0.42 
88.371	-1.1313	0.0010	1.9692	-5.4321	7.6294	-14.5264	1.8402	25.0763	123.5138	37.3200	85	-131	227	100825	0.42 
88.496	-1.1025	0.0835	1.9937	-5.6152	15.6250	5.8594	1.5436	26.2079	124.0356	37.3400	83	-124	229	100825	0.42 
88.621	-0.9629	-0.0244	1.8540	-2.2583	5.8594	-6.8359	1.3348	27.0209	124.4586	37.3300	84	-127	233	100825	0.42 
88.699	-1.0049	0.0210	1.9077	-2.4414	6.8359	2.6855	0.9998	27.7570	124.2389	37.3400	87	-124	232	100825	0.42 
88.840	-1.0190	0.0132	1.9004	-1.1597	5.0049	-9.6436	0.5273	28.4106	123.7555	37.3500	90	-124	234	100824	0.42 
88.903	-0.9771	0.0029	1.8784	-5.1270	4.5166	-0.3662	0.0385	28.7622	123.4094	37.3400	91	-121	236	100825	0.42 
89.028	-1.0059	0.0059	1.8809	-2.1362	7.0801	-1.1597	-0.4175	29.3500	123.2336	37.3400	94	-120	237	100824	0.42 
89.152	-1.0249	-0.0034	1.8887	1.9531	5.0659	-0.7324	-0.4340	29.8828	123.0524	37.3600	95	-122	238	100824	0.42 
89.230	-1.0273	0.0293	1.8638	3.6621	3.0518	5.0659	0.0494	30.1794	123.1677	37.3700	97	-125	241	100825	0.42 
89.340	-1.0278	0.0181	1.8823	1.2207	5.0659	10.5591	0.8020	30.5585	124.0576	37.3700	100	-124	242	100824	0.42 
89.480	-1.0366	0.0039	1.8862	0.3052	3.4790	5.0659	1.3293	30.8826	124.8981	37.3600	99	-125	244	100825	0.42 
89.543	-1.0371	0.0034	1.8828	0.4272	0.8545	0.3662	1.4172	31.0034	124.9530	37.3600	102	-127	244	100825	0.42 
89.683	-1.0356	0.0098	1.8833	-0.4272	-1.5259	-1.6479	1.2634	30.7892	124.6014	37.3800	103	-127	247	100825	0.42 
89.777	-1.0269	0.0220	1.8853	-0.6714	-1.7700	-1.6479	1.0602	30.4816	124.2004	37.3600	101	-128	245	100825	0.42 
89.887	-1.0347	0.0083	1.8882	-0.5493	-1.5259	-2.1973	0.8734	30.1849	123.9148	37.3700	101	-129	245	100825	0.42 
89.980	-1.0356	0.0264	1.8862	-0.6714	-1.0986	-2.2583	0.6042	29.9487	123.4424	37.3800	97	-127	243	100825	0.42 
90.105	-1.0259	0.0024	1.8828	0.1221	0.2441	-0.4883	0.5438	29.8004	123.3105	37.3900	98	-125	240	100825	0.42 
90.184	-1.0244	0.0122	1.8843	-1.2207	-0.2441	-2.9907	0.3351	29.7510	122.9425	37.3800	99	-124	242	100826	0.42 
90.308	-1.0229	0.0215	1.8877	-0.7324	-1.2207	0.6104	0.1428	29.6301	122.7338	37.3900	99	-124	241	100825	0.42 
90.434	-1.0142	0.0225	1.8823	0.6714	-1.8311	4.0283	0.3406	29.3994	123.0249	37.3900	98	-125	239	100825	0.42 
90.527	-1.0200	0.0112	1.8872	0.0000	-0.1221	3.2959	0.5988	29.2566	123.4753	37.3900	98	-128	241	100825	0.42 
90.606	-1.0024	0.0073	1.8823	0.6104	0.3662	0.4272	0.7361	29.2126	123.6511	37.3700	98	-124	242	100825	0.42 
90.715	-1.0171	0.0317	1.8862	0.3052	-0.3052	-5.3711	0.6152	29.1907	123.2721	37.3900	96	-127	244	100825	0.42 
90.809	-1.0210	0.0225	1.8921	-0.7324	0.8545	-1.4038	0.4669	29.2731	122.9700	37.4100	98	-126	240	100825	0.42 
90.934	-1.0225	0.0083	1.8848	-0.8545	0.9766	-0.0610	0.3516	29.3060	122.9095	37.4000	99	-127	243	100825	0.42 
91.043	-1.0190	0.0127	1.8652	0.4272	3.7842	-3.2959	0.1703	29.4763	122.5909	37.4000	98	-125	243	100825	0.42 
91.168	-1.0356	0.0259	1.8994	0.1831	2.3193	2.2583	0.1978	29.8059	122.4811	37.4100	100	-124	242	100824	0.42 
91.246	-1.0415	0.0044	1.8765	0.0000	-1.5259	3.6621	0.3900	29.7620	122.8217	37.4200	101	-127	245	100825	0.42 
91.355	-1.0396	0.0020	1.8755	-0.1831	-1.8311	2.3804	0.5383	29.5477	123.0798	37.4200	100	-124	245	100825	0.42 
91.434	-1.0264	0.0161	1.8804	-0.5493	-1.2817	1.5259	0.6152	29.3719	123.2227	37.4200	99	-124	246	100824	0.42 
91.559	-1.0254	0.0068	1.8760	-0.1221	-0.3052	1.8311	0.6592	29.2401	123.3545	37.4000	100	-127	246	100825	0.42 
91.699	-1.0269	0.0127	1.8799	0.0610	-0.2441	2.1362	0.7416	29.1742	123.4918	37.4100	99	-123	245	100825	0.42 
91.793	-1.0215	0.0049	1.8789	0.2441	-1.0986	2.6855	0.8734	29.0424	123.6951	37.4100	101	-124	243	100825	0.42 
91.902	-1.0234	0.0107	1.8823	0.0610	-1.7700	2.6855	1.0107	28.8611	123.9038	37.4200	98	-129	246	100825	0.42 
91.981	-1.0225	0.0132	1.8843	0.0000	-1.7700	1.5869	1.0712	28.6578	124.0356	37.4100	99	-126	241	100825	0.42 
92.106