15+15
StartTime: 2017-07-11 16:15:19.429
Time(s)	ax(g)	ay(g)	az(g)	wx(deg/s)	wy(deg/s)	wz(deg/s)	AngleX(deg)	AngleY(deg)	AngleZ(deg)	T(°)	hx	hy	hz	Pressure(Pa)	Altitude(m) 
462.123	-1.0513	-0.0786	1.8730	-0.2441	1.0986	-1.5259	-2.4884	29.2676	153.1329	43.3700	22	-247	210	100805	0.43 
462.170	-1.0601	-0.0703	1.8789	0.3052	-2.0142	0.1831	-2.4445	29.1742	152.6111	43.3800	21	-250	209	100806	0.43 
462.233	-1.0615	-0.0713	1.8784	0.3052	-2.3804	1.0376	-2.3511	28.9709	152.7209	43.3800	20	-250	209	100806	0.43 
462.327	-1.0464	-0.0688	1.8774	0.2441	-2.6245	1.0986	-2.2577	28.7567	152.7979	43.3700	23	-249	212	100806	0.43 
462.358	-1.0400	-0.0698	1.8784	0.0610	-1.6479	-0.1221	-2.1973	28.6084	152.8748	43.3700	16	-253	210	100806	0.43 
462.405	-1.0459	-0.0669	1.8755	0.7324	-1.2207	-0.0610	-2.1588	28.5590	152.9626	43.3600	16	-247	208	100806	0.43 
462.514	-1.0352	-0.0278	1.8721	3.0518	-0.9155	3.2349	-1.8182	28.5040	153.2153	43.3700	16	-250	207	100806	0.43 
462.624	-1.0220	0.0415	1.8608	3.1128	1.3428	6.8970	-1.1151	28.6578	153.8800	43.3700	16	-252	210	100806	0.43 
462.749	-1.0498	0.0225	1.8613	0.9766	-0.7324	11.9629	-0.2582	28.7622	155.1050	43.3700	12	-253	210	100807	0.43 
462.827	-1.0269	-0.1235	1.8662	5.6763	8.3008	-11.1084	0.1099	28.9764	155.5939	43.3700	9	-252	212	100807	0.43 
463.170	-0.8843	-0.0425	1.8662	1.5869	9.2163	-12.8174	-0.3406	29.2566	154.2096	43.3700	14	-257	212	100806	0.43 
463.249	-0.9478	-0.1685	1.8462	-10.1929	6.3477	4.6387	-0.6976	29.6301	155.0391	43.3700	13	-253	213	100806	0.43 
463.280	-0.9727	-0.1060	1.8428	-3.8452	12.6953	0.6714	-1.7249	30.6134	154.6875	43.3900	13	-253	216	100806	0.43 
463.342	-0.9834	-0.0859	1.7695	7.3242	0.6104	2.5635	-1.5985	31.3550	154.5447	43.3700	17	-250	217	100806	0.43 
463.405	-0.8975	-0.1743	1.6152	14.8926	-9.6436	9.7046	0.0330	30.4596	155.5994	43.3800	13	-256	218	100805	0.43 
463.639	-0.9268	-0.0361	1.6050	11.7188	-13.6108	10.6812	1.6754	29.5477	156.0333	43.4000	10	-265	227	100804	0.43 
463.768	-1.3120	0.0449	2.3682	-5.1270	24.1089	-34.4849	1.8842	31.1298	157.3627	43.3900	4	-273	234	100804	0.43 
463.804	-0.9956	-0.0186	2.0229	17.0288	15.6250	28.8086	1.1646	31.0199	156.6376	43.3900	10	-272	235	100805	0.43 
463.820	-1.0977	0.2178	1.6431	13.4888	29.2358	-12.0850	2.8674	33.3600	155.9180	43.3900	6	-276	242	100805	0.43 
463.882	-1.1108	-0.0244	1.7861	-13.7329	-4.9438	22.8882	3.0872	34.3817	157.6923	43.3700	7	-278	246	100805	0.43 
463.976	-0.8931	0.2944	1.5156	-3.4180	-4.0894	-36.3770	2.3401	32.0966	156.5717	43.3600	5	-280	248	100806	0.43 
464.070	-0.9209	0.2100	1.4307	-7.3242	-0.4883	-14.2212	1.3733	31.7725	155.1270	43.3600	-4	-278	249	100806	0.43 
464.195	-1.7881	-0.3872	3.1357	9.2163	25.3906	-19.1650	1.5710	33.4424	155.7202	43.3600	-5	-273	253	100806	0.43 
464.273	-1.0610	0.0322	1.9116	-5.9204	5.4932	-21.4233	0.5438	32.6569	154.2426	43.3400	-12	-270	257	100806	0.43 
464.476	-1.0039	-0.1411	1.6846	5.8594	-28.9307	-6.2256	-0.2856	32.0691	153.7262	43.3300	-6	-271	260	100806	0.43 
464.601	-0.9639	-0.1572	1.4126	10.2539	-33.8135	23.6206	1.4392	28.3118	154.3744	43.3300	-9	-271	266	100807	0.43 
464.617	-1.3726	0.1108	2.3047	-11.7798	15.2588	17.2729	0.7745	28.7787	154.4238	43.3200	-20	-270	274	100807	0.43 
464.695	-0.7031	-0.0234	1.6445	20.6299	-10.8643	6.7749	0.4120	28.5150	154.9567	43.3100	-26	-269	277	100808	0.43 
464.820	-1.0742	0.1919	1.6611	9.4604	7.1411	-19.1040	1.5875	30.7947	155.0281	43.3200	-22	-271	279	100809	0.43 
464.914	-1.0566	0.0776	1.5405	-19.1040	-28.3203	11.4136	1.0052	31.1682	155.2258	43.3000	-21	-272	282	100809	0.43 
465.023	-1.1699	0.1489	1.8350	-22.3389	31.2500	-1.5259	-1.1536	31.3275	154.4073	43.3000	-25	-268	277	100809	0.43 
465.117	-1.1182	0.1284	1.8896	-3.1128	10.6812	-31.6162	-3.4552	31.4813	152.0837	43.3000	-27	-262	274	100809	0.43 
465.242	-1.5762	-0.8721	3.4795	19.7754	36.9873	-20.0806	-3.1311	32.8931	150.9576	43.2800	-22	-252	276	100810	0.43 
465.414	-1.1040	0.0068	1.7861	-7.0801	18.1885	13.7939	-3.0872	31.4429	149.1559	43.2900	-17	-254	277	100810	0.43 
465.445	-1.1050	-0.2388	1.6724	2.3804	16.7847	1.0986	-3.2465	33.5083	150.5347	43.2700	-17	-252	276	100810	0.43 
465.585	-1.0747	0.0986	1.3682	17.3950	-26.3062	26.4893	-1.0657	31.5802	150.8862	43.2900	-20	-251	277	100811	0.43 
465.664	-1.0259	0.0313	1.6826	-3.7842	-9.0942	18.0054	0.7416	30.3113	153.0176	43.2900	-27	-252	284	100811	0.43 
466.007	-1.2764	0.3735	3.1357	-18.6768	45.1050	-40.3442	0.3131	30.7947	154.6710	43.2700	-37	-242	286	100811	0.43 
466.054	-1.0972	-0.1011	1.8833	8.7280	16.5405	33.4473	0.8514	29.5697	155.6927	43.2700	-42	-241	282	100812	0.43 
466.132	-1.1074	0.1230	1.5918	1.5259	26.9165	-20.5078	1.1041	32.0911	154.4293	43.2600	-37	-241	281	100812	0.43 
466.210	-0.9966	-0.0742	1.5557	-14.2822	-12.6953	-22.0947	-0.8844	32.2504	152.9517	43.2700	-34	-242	281	100812	0.43 
466.257	-1.0977	0.0967	1.7563	-10.0708	-10.4370	11.2305	-2.8949	31.6132	151.1719	43.2600	-37	-235	279	100813	0.43 
466.320	-1.2510	-0.1934	2.2354	10.0708	14.9536	-3.2959	-3.2574	31.9098	149.8151	43.2800	-34	-230	277	100813	0.43 
466.414	-0.9531	-0.0820	2.0190	1.4648	-26.8555	-26.9775	-2.2083	31.4923	150.8423	43.2600	-31	-227	271	100813	0.43 
466.523	-1.0176	-0.1812	1.6792	-6.5918	7.9346	6.4697	-3.3618	32.1405	149.8041	43.2600	-28	-222	271	100813	0.43 
466.601	-1.0674	-0.0659	1.7344	20.5688	-24.0479	-1.5259	-3.3014	32.7283	149.1779	43.2500	-27	-224	269	100814	0.43 
466.836	-1.1011	-0.3022	1.6914	4.5776	-4.9438	22.5830	-0.8405	31.3770	151.1224	43.2400	-31	-224	270	100814	0.43 
466.882	-1.3105	-0.0200	2.1147	-5.6152	17.7612	23.1934	0.0330	30.9540	153.1329	43.2600	-34	-224	272	100814	0.43 
466.929	-1.0820	0.2524	1.8535	10.6201	-62.3779	15.9912	-1.4502	30.6738	152.6990	43.2600	-30	-217	270	100815	0.43 
467.054	-1.2100	0.1465	1.7573	20.0195	18.4937	-20.6299	1.1975	32.2778	154.0668	43.2400	-35	-215	269	100815	0.42 
467.164	-1.1528	0.0552	1.7021	-15.6250	0.5493	10.9253	1.2689	34.3378	153.6273	43.2100	-31	-217	270	100815	0.42 
467.304	-1.0381	0.1118	1.6465	-16.4185	5.4321	-4.9438	0.2747	32.9810	154.2590	43.2300	-34	-214	268	100816	0.42 
467.429	-1.3813	-0.0566	1.9097	4.4556	4.3335	9.0332	0.2637	31.8713	155.4895	43.2500	-31	-214	265	100817	0.42 
467.492	-1.4873	-0.1392	2.8643	14.5264	-11.2915	-11.5967	1.3458	31.4813	155.2808	43.2400	-31	-213	262	100817	0.42 
467.570	-1.0967	-0.0645	1.6641	-8.7280	1.4038	6.1035	0.7306	30.1135	154.7589	43.2300	-30	-210	258	100817	0.42 
467.695	-1.0557	-0.2061	1.5610	2.0142	-4.7607	-0.6714	0.0934	30.6793	154.5282	43.2200	-32	-210	259	100818	0.42 
467.804	-1.1025	-0.0879	1.5117	7.3853	-5.1880	6.4697	0.7471	29.8553	153.8361	43.2100	-30	-211	260	100818	0.42 
467.914	-1.2983	0.1440	2.1426	-14.0991	4.2114	22.5830	0.4724	29.4104	153.6273	43.2000	-26	-216	257	100818	0.42 
468.164	-1.2554	-0.0249	2.6812	-7.6904	-6.4697	31.0669	0.7690	29.3774	154.7864	43.2100	-23	-212	254	100818	0.42 
468.273	-1.2046	0.1367	1.7842	0.4272	13.7939	-9.7046	0.6207	29.7290	153.4406	43.2000	-21	-216	254	100819	0.42 
468.320	-1.0869	0.0391	1.6006	-6.0425	8.1177	4.6997	0.5768	31.1298	153.3966	43.1900	-15	-216	254	100819	0.42 
468.383	-1.1338	0.2383	1.7500	-8.1787	12.9395	2.0752	-0.0659	31.1902	152.3309	43.1900	-14	-216	254	100819	0.42 
468.445	-1.2915	-0.1235	1.8999	9.6436	18.0054	-21.9116	0.4395	31.3605	153.6383	43.1800	-13	-218	253	100819	0.42 
468.555	-1.3955	-0.1689	2.9370	9.6436	-8.6060	-25.3906	0.3406	31.7065	152.6166	43.1900	-12	-217	254	100820	0.42 
468.695	-0.9795	-0.0693	1.5688	-0.7324	-5.0049	-8.0566	-0.0549	30.8826	152.4628	43.1800	-11	-221	255	100820	0.42 
468.758	-1.0376	-0.0996	1.3560	6.8359	-19.7754	9.2773	-0.0330	30.9705	152.0673	43.1700	-10	-220	254	100820	0.42 
468.851	-0.8608	0.0024	1.5376	1.9531	-9.7046	-1.3428	0.4010	30.2509	151.6827	43.1500	-10	-224	255	100820	0.42 
469.070	-1.2427	0.2686	2.4736	14.2822	-26.8555	-33.8745	-0.2802	31.3275	152.0123	43.1500	-11	-220	253	100821	0.42 
469.117	-1.1465	0.1250	1.9258	9.4604	4.2114	-15.6250	0.2966	30.6793	150.9686	43.1400	-7	-217	255	100822	0.42 
469.148	-1.1069	0.0933	1.5469	-3.7231	14.5874	-6.8359	0.0275	31.9208	149.6887	43.1400	-2	-223	256	100823	0.42 
469.273	-1.0576	0.1104	1.4395	-13.1836	13.7329	-1.1597	-0.5658	31.5527	149.1943	43.1400	-2	-224	255	100823	0.42 
469.383	-0.9409	-0.1221	1.6821	-5.1270	-15.4419	31.3721	0.0275	30.8167	152.6770	43.1300	-7	-222	252	100823	0.42 
469.492	-1.3267	-0.1846	2.7642	4.2114	1.0986	11.2305	0.4010	30.7892	153.1549	43.1200	-11	-219	253	100824	0.42 
469.758	-0.9922	-0.0879	1.9478	-10.1318	17.5781	-6.9580	0.5328	28.9270	153.4735	43.1000	-13	-218	246	100824	0.42 
469.915	-1.0576	-0.0962	1.4863	-8.4839	3.5400	21.4233	-0.0330	28.9050	154.3964	43.1000	-14	-215	245	100824	0.42 
469.946	-1.0967	-0.2729	1.5327	8.7891	-8.1787	10.6201	1.3403	28.1250	156.4453	43.1100	-24	-216	243	100824	0.42 
469.993	-1.1509	0.3628	2.1440	-7.8125	5.0049	0.1221	1.5546	27.9822	157.1594	43.1000	-27	-220	244	100824	0.42 
470.071	-0.9409	0.0669	2.2051	4.9438	-5.9814	4.4556	1.6260	28.7128	157.4561	43.0900	-27	-214	242	100825	0.42 
470.133	-0.9741	0.0586	1.6343	-0.1221	11.2305	22.2168	3.2245	28.9160	160.2191	43.0700	-26	-211	237	100826	0.42 
470.212	-1.0723	0.1772	1.7114	-7.8735	0.9155	24.6582	4.0320	30.1520	162.3999	43.0900	-32	-213	240	100826	0.42 
470.352	-1.0742	0.1230	1.5898	-23.0103	-8.9111	16.4795	3.9386	28.9160	165.1849	43.0800	-32	-209	236	100827	0.42 
470.493	-1.1533	-0.3657	1.6206	10.7422	15.8081	6.7139	4.3616	27.8558	167.3602	43.0600	-42	-206	230	100827	0.41 
470.524	-1.2529	-0.0659	3.1426	39.9780	-18.3105	0.9766	5.1141	29.4983	165.3497	43.0700	-35	-208	229	100828	0.41 
470.649	-1.1543	-0.1045	2.0947	-14.0381	19.5923	18.6157	4.4165	29.3610	165.6738	43.0700	-36	-209	232	100828	0.41 
470.743	-0.9976	-0.0684	1.7646	7.8735	-5.8594	-22.4609	3.2739	29.9872	165.6464	43.0800	-37	-208	225	100828	0.41 
470.821	-1.0405	-0.1978	1.6792	10.4370	12.2681	8.7280	4.4769	29.5587	165.6738	43.0800	-36	-209	228	100828	0.41 
470.962	-0.7637	0.2061	1.7202	3.7231	-1.2207	31.1890	6.3336	28.8666	167.2888	43.0600	-38	-211	229	100829	0.41 
471.055	-1.5015	0.1030	2.9023	-5.5542	30.0903	18.4937	7.6630	29.2896	173.9246	43.0500	-44	-214	229	100829	0.41 
471.149	-0.9575	-0.0532	1.6851	10.7422	12.8174	60.1196	9.9261	27.3779	177.3083	43.0500	-53	-212	222	100829	0.41 
471.290	-1.1343	0.2568	1.6060	3.6621	20.6299	28.8086	11.5192	28.9764	179.7583	43.0400	-56	-215	219	100830	0.41 
471.368	-0.9277	0.1309	1.6572	-14.3433	-0.0610	48.5840	12.8320	29.3884	-176.1438	43.0500	-58	-218	221	100830	0.41 
471.462	-0.9570	-0.0112	2.0566	-25.8179	7.2021	41.1987	12.8485	29.8224	-172.0569	43.0400	-66	-213	216	100830	0.41 
471.541	-1.4600	0.2417	2.2183	-6.2256	-10.6812	0.0000	10.9753	29.0204	-171.0791	43.0500	-75	-206	209	100830	0.41 
471.712	-1.2231	-0.0415	1.9233	-6.4087	17.7612	43.9453	12.8705	28.2788	-167.1295	43.0400	-86	-206	206	100829	0.41 
471.774	-1.3066	-0.1211	1.8613	-24.9634	-8.9111	105.9570	15.3589	26.5155	-158.9117	43.0500	-101	-197	205	100829	0.41 
471.868	-1.1675	-0.1089	1.8228	-28.4424	-8.1787	102.2339	16.3422	23.4723	-149.8151	43.0300	-123	-180	201	100830	0.41 
471.962	-1.0103	-0.1104	1.8062	-12.1460	0.0610	59.6924	16.1664	21.6870	-143.3386	43.0500	-140	-160	195	100830	0.41 
472.118	-1.0664	-0.1191	1.9482	-6.7139	-6.8359	56.8237	16.6113	20.9125	-139.3341	43.0600	-153	-145	193	100830	0.41 
472.181	-0.9980	0.2817	2.1338	4.2114	-20.2637	52.4292	17.1936	18.7537	-135.8899	43.0600	-163	-136	192	100830	0.41 
472.290	-1.2764	0.1997	1.2686	-5.4932	-24.5361	98.0225	18.2263	14.7986	-129.5728	43.0800	-177	-123	196	100830	0.41 
472.369	-1.2119	0.1064	1.9565	23.7427	-0.7324	31.8604	19.9072	15.1172	-123.4753	43.0500	-183	-106	195	100830	0.41 
472.509	-1.1064	0.1152	1.7295	5.5542	17.3950	75.9888	22.7197	14.5074	-119.3829	43.0500	-183	-91	192	100830	0.41 
472.603	-1.0493	0.1499	1.8027	-4.8218	9.2163	53.8330	23.4998	14.3536	-114.3951	43.0800	-183	-81	188	100830	0.41 
474.166	-1.0049	0.2539	1.7954	-20.2637	-6.2866	48.2788	22.7362	13.6066	-111.3245	43.0800	-178	-68	186	100830	0.41 
474.243	-1.1450	-0.0073	2.2246	-24.1699	3.6621	38.3911	20.3082	13.2770	-108.3636	43.0800	-174	-53	189	100831	0.41 
474.307	-1.5342	0.2637	2.1934	1.2817	-5.3101	13.7329	18.9514	12.3486	-109.1821	43.0800	-176	-44	190	100832	0.41 
474.353	-1.2373	0.1714	1.9609	-13.4888	16.9678	31.3721	19.3250	12.4475	-107.0563	43.0800	-174	-35	191	100831	0.41 
474.416	-1.2153	-0.0942	1.7842	-28.1982	-0.8545	92.7734	18.0066	11.4093	-100.9973	43.0800	-167	-23	195	100832	0.41 
474.463	-1.1108	0.0166	1.7388	-8.4229	-20.0806	-23.0103	2.8510	6.9104	-20.8246	43.1000	-41	60	221	100832	0.41 
474.541	-1.1743	0.1030	1.6074	20.3247	6.9580	-44.6777	2.0435	7.0258	-20.3522	43.0500	-52	58	219	100831	0.41 
474.572	-0.9937	0.0425	2.1855	16.9067	-71.7163	16.9678	2.5818	9.2230	-18.1934	43.0500	-61	51	214	100832	0.41 
474.635	-1.0400	-0.0654	1.5864	-3.0518	-5.1270	9.2773	1.2744	9.5966	-14.8535	43.0300	-61	48	218	100832	0.41 
474.713	-1.0913	-0.1533	1.5918	7.2021	2.9907	1.7090	0.4614	11.6730	-10.9149	43.0200	-59	50	218	100832	0.41 
474.760	-1.0244	0.0205	1.3906	-2.6245	-1.6479	23.0103	0.7855	11.9202	-6.9324	43.0200	-57	44	213	100832	0.41 
474.869	-1.1606	-0.2427	1.9243	-5.4932	10.0098	18.9209	0.2197	12.7112	-2.5433	43.0200	-56	45	216	100832	0.41 
475.010	-1.5698	0.5249	3.4346	-23.7427	55.9692	10.2539	-0.4559	14.6832	1.3458	43.0100	-53	40	221	100833	0.41 
475.057	-1.2207	0.0190	1.9692	14.0381	28.5034	36.7432	0.6702	13.1891	5.9436	43.0000	-54	38	221	100833	0.41 
475.182	-1.0615	0.1304	1.5918	-4.2114	25.6348	3.4180	1.2744	15.1666	9.6295	43.0200	-42	35	222	100833	0.41 
475.260	-1.0020	0.0703	1.2368	-10.3760	-8.1787	10.2539	-0.3351	16.6498	13.2990	43.0000	-39	35	218	100833	0.41 
475.416	-0.9771	0.2295	1.6943	-9.7046	-12.6953	17.1509	-1.2524	17.7319	16.5619	43.0100	-45	36	222	100833	0.41 
475.479	-1.3364	-0.1675	3.0435	10.1318	1.8311	-4.6997	-1.6425	19.6490	17.4243	43.0000	-44	34	221	100834	0.41 
475.651	-1.0273	0.0068	1.9551	-14.6484	2.5635	-17.5781	-1.5985	19.1107	18.9514	42.9900	-44	29	219	100834	0.41 
475.979	-1.0723	-0.0952	1.5532	-2.7466	8.6060	0.9155	-2.9938	20.2698	20.2643	42.9600	-45	32	221	100835	0.41 
476.041	-1.0317	-0.1416	1.4590	19.2261	-21.4844	2.1973	-2.4664	20.9564	22.5989	42.9500	-43	33	222	100835	0.41 
476.072	-1.0103	-0.1274	1.6484	7.2021	-19.4092	13.3667	-1.6260	20.5444	24.7028	42.9700	-47	26	221	100836	0.41 
476.135	-1.3472	-0.0034	2.5693	-6.9580	10.9863	0.6714	-1.9226	19.5612	27.5757	42.9700	-50	29	220	100836	0.41 
476.182	-0.9966	-0.0669	1.8018	4.1504	-30.1514	-30.4565	-2.5214	18.7756	28.6908	42.9700	-53	30	220	100836	0.41 
476.244	-1.1089	0.0435	1.7241	1.8921	22.4609	-15.8081	-2.3016	21.1926	30.2893	42.9600	-57	29	223	100836	0.41 
476.291	-0.9668	0.2168	1.5884	-11.2915	-21.4233	4.6997	-2.8400	22.4011	32.2778	42.9500	-51	28	218	100836	0.41 
476.385	-1.1216	0.0732	1.7505	-8.2397	-1.7090	19.7144	-3.6090	22.5385	36.4526	42.9300	-51	30	224	100836	0.41 
476.494	-1.2119	0.0259	1.7197	6.6528	16.4185	0.6714	-2.8345	23.1757	39.7321	42.9400	-47	33	227	100836	0.41 
476.635	-1.1699	-0.7051	3.2065	6.7139	6.8359	-13.4277	-2.7411	24.4281	39.9683	42.9200	-48	35	225	100837	0.41 
476.760	-1.1455	-0.0796	1.8252	-14.8315	33.3862	-9.9487	-2.6422	23.3295	41.0010	42.9000	-49	31	226	100837	0.41 
476.885	-1.1494	-0.0605	1.5635	3.4180	20.8130	4.3945	-2.9333	25.1312	43.2642	42.9200	-42	32	230	100837	0.41 
477.010	-1.1475	-0.1250	1.5000	-1.2207	1.6479	7.3853	-1.9116	25.4279	45.4230	42.9000	-37	28	229	100836	0.41 
477.041	-1.1973	0.1948	1.9697	-13.2446	-3.2959	7.0801	-1.9171	24.4446	44.9835	42.8900	-43	29	226	100837	0.41 
477.104	-1.0596	0.5674	2.6279	8.4229	38.0249	-17.2729	-1.9446	24.8566	45.8350	42.9100	-44	28	226	100837	0.41 
477.229	-0.8945	0.1528	1.9233	1.6479	20.2637	22.8271	-1.9830	25.1038	46.3678	42.9000	-51	30	230	100838	0.41 
477.385	-1.0938	0.1357	1.6372	0.1221	3.1128	-10.0708	-2.2083	26.5155	47.5269	42.8900	-48	29	225	100838	0.41 
477.447	-0.9663	0.0156	1.1636	-5.3101	-15.1367	-10.6201	-2.9608	25.8508	48.4277	42.8900	-52	32	227	100838	0.41 
477.604	-0.7769	0.0132	1.5889	-8.9722	-16.2964	23.9868	-3.0322	26.1090	51.0315	42.8800	-50	32	231	100838	0.41 
477.666	-1.2300	-0.0176	2.9663	13.1836	7.3853	-24.2920	-3.3289	26.4056	50.0922	42.8800	-54	30	234	100838	0.41 
477.792	-0.9844	-0.0913	1.9800	-4.4556	-10.9253	8.9111	-2.6257	24.8456	51.3611	42.8900	-54	30	231	100839	0.40 
477.838	-0.9746	-0.0669	1.4731	-2.5024	9.7046	12.8784	-2.5708	25.2411	52.7893	42.8600	-54	32	234	100839	0.40 
477.917	-0.9819	-0.0840	1.1738	2.0752	0.5493	15.5029	-1.9171	26.4990	54.6460	42.8600	-49	30	233	100839	0.40 
478.041	-1.0503	0.0063	1.8564	-14.0381	27.4048	10.0098	-1.9226	28.3173	55.7996	42.8700	-50	33	234	100839	0.40 
479.713	-1.1099	0.5605	2.6260	16.1133	-8.6060	-4.5776	-2.0215	29.5367	56.0193	42.8500	-45	35	236	100840	0.40 
479.760	-1.0820	0.2017	2.0386	0.9766	4.6997	8.3618	-1.1700	28.6139	57.4475	42.8400	-42	33	235	100840	0.40 
479.823	-1.0986	0.0474	1.5806	-4.5166	8.7891	7.6294	-0.3900	29.2017	60.1337	42.8400	-40	32	237	100841	0.40 
479.917	-1.0596	-0.0571	1.2573	-8.6060	10.4980	-10.9863	-0.8240	29.4214	61.5399	42.8300	-36	30	234	100842	0.40 
480.041	-0.7803	-0.1255	1.4668	-9.0942	-12.0239	13.7329	-1.4832	29.6466	62.3254	42.8200	-38	31	240	100842	0.40 
480.120	-1.4473	-0.2817	3.0571	16.4795	1.0986	15.9912	-1.5765	30.0751	60.4578	42.8100	-42	35	239	100843	0.40 
480.120	-1.4473	-0.2817	3.0571	19.4702	9.0942	-19.7754	-3.1531	29.3335	58.3484	42.7600	-63	29	233	100847	0.40 
480.166	-1.1079	-0.1304	1.9058	-10.6812	13.2446	-3.7231	-3.2080	28.1799	59.1779	42.7600	-71	32	235	100847	0.40 
480.229	-1.0728	-0.1401	1.6182	2.6855	7.6294	-2.9907	-3.5211	28.8336	58.9417	42.7500	-67	31	234	100848	0.40 
480.276	-1.1045	-0.1367	1.5806	4.6387	16.4185	16.4185	-2.1973	28.7897	59.7821	42.7500	-69	28	235	100848	0.40 
480.338	-0.7817	0.0698	1.8198	5.1270	-8.5449	-2.1362	-2.0160	28.6578	59.2932	42.7600	-65	29	234	100848	0.40 
480.432	-0.9688	0.2979	2.1724	16.9678	-42.4194	-55.5420	-2.9663	29.2786	58.5736	42.7700	-67	28	233	100848	0.40 
480.463	-0.9077	-0.0015	1.8403	13.0005	25.8179	2.3193	-2.5488	28.5919	58.5791	42.7400	-76	26	232	100848	0.40 
480.604	-1.0693	0.2222	1.7124	3.9673	28.1372	-4.6997	-2.0380	31.1407	58.1122	42.7400	-76	24	231	100849	0.40 
480.698	-0.9565	0.0391	1.7441	-12.6953	-12.5732	8.2397	-1.9830	32.2064	60.1117	42.7300	-72	23	230	100849	0.40 
480.838	-1.1255	0.0820	1.6313	-3.9063	-5.5542	9.8267	-2.5928	31.7944	61.3257	42.7300	-70	27	230	100849	0.40 
480.901	-0.9683	0.1323	1.7573	-5.6763	-13.3057	15.8081	-2.3291	31.4484	63.5010	42.7200	-68	27	234	100849	0.40 
480.948	-1.2793	-0.3867	2.2197	4.3335	10.1929	-10.8032	-1.4172	30.8771	65.1874	42.7400	-66	31	233	100849	0.40 
481.042	-0.9268	0.1919	1.8115	6.8359	-74.9512	21.8506	-1.3898	29.1357	62.4847	42.7200	-75	26	229	100850	0.40 
481.151	-1.1763	-0.1016	1.7046	-14.1602	7.7515	17.3950	-2.6093	29.4434	62.6495	42.7100	-81	33	232	100850	0.40 
481.292	-1.0078	-0.0605	1.5645	10.6201	-1.2207	-14.7705	-3.1201	30.8112	61.4246	42.7100	-81	33	234	100850	0.40 
481.339	-0.9946	0.0103	1.6206	1.7700	-30.8838	18.5547	-2.4115	30.3497	60.4358	42.7100	-82	33	229	100850	0.40 
481.464	-1.1484	-0.0845	1.9346	-11.3525	-5.4932	24.9023	-2.0874	28.6359	61.0455	42.7100	-84	33	237	100850	0.40 
481.573	-1.4580	0.5020	3.2314	-22.7051	2.6245	13.9160	-2.2577	28.5205	62.2430	42.7000	-84	31	233	100851	0.39 
481.714	-1.0308	-0.0615	1.6831	11.9019	21.7285	10.7422	-0.8075	26.6364	63.2318	42.6900	-87	34	237	100851	0.39 
481.792	-1.0283	0.1543	1.6484	-4.4556	15.9302	8.1787	-0.1428	28.5480	63.6658	42.6900	-84	31	235	100851	0.39 
482.120	-0.9429	0.0767	1.5918	-11.0474	-1.5869	11.5967	-0.1099	29.2401	65.6268	42.6900	-82	36	235	100852	0.39 
482.182	-0.9907	-0.0039	1.4082	-2.2583	-14.0381	8.6670	-0.6866	29.2731	65.7971	42.6900	-83	37	237	100852	0.39 
482.276	-1.7769	-0.3384	3.4805	7.2021	-6.3477	11.5356	-1.3898	31.3879	62.8967	42.6900	-82	42	239	100853	0.39 
482.370	-1.1509	0.2095	1.7739	-15.8081	17.9443	-12.8784	-1.5271	30.2563	61.6113	42.6700	-78	41	235	100854	0.39 
482.464	-1.0137	-0.2275	1.5679	-14.7095	-1.5869	32.4707	-1.9446	31.6132	64.6820	42.6500	-75	44	241	100854	0.39 
482.495	-1.1406	-0.0146	1.6968	14.7705	-23.1934	-11.2305	-1.1206	29.9377	64.2810	42.6400	-67	46	243	100855	0.39 
482.542	-1.2051	0.1499	1.6675	0.0000	-33.8135	-19.5923	-1.3239	28.5590	62.0013	42.6400	-73	47	242	100856	0.39 
482.604	-1.1973	-0.1709	1.9644	-4.5776	-5.5542	-2.3804	-2.3346	28.5590	60.7983	42.6400	-77	43	248	100856	0.39 
482.901	-1.0322	-0.0986	1.8115	0.6104	4.6997	-22.0947	-3.4167	28.5095	57.6178	42.6400	-82	46	244	100856	0.39 
482.979	-1.0488	-0.0391	1.8608	-1.8311	7.6294	-14.7095	-4.2188	29.0753	54.4373	42.6300	-88	47	243	100856	0.39 
483.011	-1.0757	-0.0820	1.8877	0.5493	5.4932	-1.6479	-4.6307	29.8718	52.5916	42.6400	-93	44	244	100856	0.39 
484.606	-1.0532	-0.0190	1.8931	0.7935	3.2959	-1.1597	-4.6143	30.2399	51.1139	42.6400	-92	42	241	100857	0.39 
484.684	-1.0527	-0.0571	1.8755	-2.1362	-1.5259	4.3945	-4.3835	30.1959	50.7019	42.6400	-89	40	242	100857	0.39 
484.716	-1.1035	-0.0903	1.8931	-0.3052	-5.6152	6.7749	-3.9825	29.9268	50.8008	42.6400	-91	43	239	100857	0.39 
484.887	-1.0298	-0.0747	1.8716	-0.0610	-10.1929	7.7515	-3.4387	29.0533	50.9271	42.6400	-87	42	245	100856	0.39 
484.919	-1.0615	-0.1035	1.8711	1.2817	-7.4463	0.0610	-3.0817	28.2733	50.6525	42.6100	-88	42	244	100856	0.39 
484.966