StartTime: 2017-07-11 16:04:30.497
Time(s)	ax(g)	ay(g)	az(g)	wx(deg/s)	wy(deg/s)	wz(deg/s)	AngleX(deg)	AngleY(deg)	AngleZ(deg)	T(°)	hx	hy	hz	Pressure(Pa)	Altitude(m) 
65.294	-0.9858	0.0000	1.8862	0.0000	-0.5493	-0.1831	0.1648	27.3505	176.5063	37.7000	-90	-262	212	100840	0.40 
65.404	-1.0356	-0.0127	1.9014	-0.5493	0.0000	-2.1973	0.0934	27.3615	176.3690	37.7000	-89	-262	214	100840	0.40 
65.482	-1.0479	-0.0024	1.8809	-0.4272	3.7231	-2.4414	-0.1648	27.6361	175.8746	37.7000	-92	-262	212	100841	0.40 
65.607	-1.0596	-0.0034	1.8472	-0.6104	10.9863	-4.7607	-0.5054	28.4271	175.2045	37.7200	-89	-264	211	100841	0.40 
65.685	-1.1812	-0.0308	1.8584	0.1831	23.1934	-4.5166	-0.8185	30.4761	174.4629	37.7100	-84	-262	204	100841	0.40 
65.795	-1.0620	-0.0264	1.5811	6.5918	48.0347	-6.8359	-1.1591	33.9038	173.2214	37.7000	-77	-263	204	100840	0.40 
65.888	-1.2910	0.0806	1.7715	6.6528	71.7163	-12.6343	-1.6919	41.3800	170.7495	37.7100	-57	-265	203	100840	0.40 
65.998	-0.9941	-0.0435	1.3999	6.0425	21.9116	-14.8315	-1.0437	45.3955	170.2496	37.7200	-39	-266	203	100840	0.40 
66.138	-1.3271	0.0269	1.6885	5.4932	15.1978	8.7891	0.2692	48.5651	170.9528	37.7100	-33	-273	203	100840	0.40 
66.216	-1.3535	0.1533	1.8970	14.1602	-7.7515	28.2593	2.5488	48.1311	172.6941	37.6900	-39	-273	199	100840	0.40 
66.341	-1.4604	0.2168	2.0674	14.3433	-49.8047	10.3760	3.4772	45.2142	172.1832	37.7100	-48	-277	198	100841	0.40 
66.419	-0.5195	0.1357	1.6841	16.4795	-82.2754	0.6104	5.3723	38.1665	172.1393	37.7000	-60	-280	194	100841	0.40 
66.529	-0.9307	0.1611	1.8140	0.0610	-105.8350	18.6768	5.7129	30.6628	172.1777	37.7000	-80	-284	196	100842	0.40 
66.623	-0.7793	0.0703	1.7979	-1.4038	-61.2793	-1.2207	6.0590	22.1375	173.1775	37.6900	-107	-287	201	100843	0.40 
66.732	-0.7612	0.0942	1.8423	-11.2915	-26.7944	-3.6011	4.8175	19.1052	173.3368	37.6800	-120	-286	204	100843	0.40 
66.888	-0.7646	0.0708	1.8237	-3.1128	-5.1270	0.9155	4.1309	17.2980	174.0179	37.6700	-126	-282	206	100843	0.40 
66.935	-0.8076	0.0923	1.8540	-1.5259	24.5972	2.5635	3.8452	18.9185	175.1056	37.6700	-129	-282	205	100844	0.40 
67.076	-0.8428	0.0977	1.8101	-1.0376	42.7246	2.5024	3.8068	22.0770	176.2152	37.6800	-124	-283	202	100844	0.40 
67.138	-0.9272	0.0923	1.8374	1.0986	72.4487	2.4414	3.9661	27.8998	177.2864	37.6700	-111	-282	197	100845	0.40 
67.248	-1.0586	0.0723	1.8530	4.0894	91.4917	6.2256	4.6362	35.8759	178.7311	37.6600	-92	-278	192	100845	0.40 
67.388	-1.6396	0.0679	2.3184	1.2207	97.9614	-10.5591	5.8942	45.4614	179.8792	37.6500	-67	-279	193	100846	0.40 
67.466	-1.7368	0.1270	2.0776	-3.0518	27.6489	-14.9536	4.5044	50.3888	177.8302	37.6200	-36	-284	200	100846	0.40 
67.545	-1.5439	0.1030	1.9346	-2.6245	-12.2070	-7.9346	2.9279	50.2185	175.2045	37.6100	-29	-281	202	100845	0.40 
67.670	-1.2295	0.1021	1.6626	-1.0986	-47.1802	19.1650	2.7026	45.2032	174.1827	37.5900	-28	-281	207	100845	0.40 
67.810	-1.2549	0.0474	1.6323	-5.6152	-66.4673	1.8311	2.8015	39.6661	174.1003	37.5900	-41	-281	208	100845	0.40 
67.873	-1.1660	0.0405	1.5024	-10.5591	-49.6826	-17.8833	1.1865	33.2556	172.3645	37.5900	-53	-274	206	100845	0.40 
67.982	-1.1392	0.0376	1.6851	-4.8828	-28.9307	5.0659	0.4669	28.7622	171.4581	37.5800	-66	-270	209	100844	0.40 
68.076	-1.1025	0.0547	1.8257	-9.5215	-28.2593	5.9814	-0.0439	25.6750	171.6614	37.5800	-74	-268	208	100843	0.40 
68.185	-1.0518	-0.0288	1.8462	-3.5400	-14.7095	0.7935	-0.4834	23.6041	172.2931	37.5600	-88	-267	210	100843	0.40 
68.310	-0.9849	0.0205	1.8262	-0.3662	-8.8501	-5.6763	-0.8459	22.8186	171.9800	37.5600	-88	-266	209	100843	0.40 
68.373	-1.0361	0.0000	1.8892	-0.6714	1.2817	-3.1128	-1.0107	22.9779	171.6833	37.5600	-88	-266	208	100843	0.40 
68.560	-1.0649	0.0210	1.8613	-0.2441	5.0049	-4.5776	-1.1371	23.5272	171.4142	37.5600	-86	-267	210	100843	0.40 
68.639	-1.0977	-0.0239	1.8022	-2.1973	22.3999	-6.1035	-1.2195	25.1862	171.2329	37.5600	-85	-267	211	100843	0.40 
68.732	-1.1934	0.0542	1.5845	-2.3193	58.0444	3.4180	-1.6809	28.8171	170.1233	37.5700	-78	-267	208	100842	0.40 
68.826	-1.2393	-0.0190	1.5645	2.2583	65.6738	-1.3428	-1.5436	35.5573	170.1013	37.5700	-65	-267	207	100842	0.40 
68.967	-1.1841	0.1270	1.4136	7.5684	45.8984	-14.8926	-2.2467	41.5393	167.5580	37.5800	-44	-268	202	100842	0.40 
69.045	-1.2329	0.0352	1.6279	4.7607	47.7905	27.7710	-0.9009	46.6864	168.2776	37.5700	-30	-272	201	100842	0.40 
69.123	-1.5308	-0.0073	2.0615	11.5356	23.3765	37.7197	0.5548	48.9221	169.4312	37.6000	-24	-274	202	100842	0.40 
69.217	-1.5757	0.0562	2.0229	12.9395	-21.9727	15.8691	2.8400	47.0764	170.6891	37.5900	-31	-278	198	100842	0.40 
69.373	-1.6133	0.4302	2.4063	6.3477	-61.5234	23.4985	4.4275	41.9678	171.3647	37.5900	-45	-280	195	100843	0.40 
69.451	-0.8623	0.0542	1.7104	-1.1597	-54.0161	11.6577	6.0645	33.3380	173.1555	37.6000	-65	-281	195	100843	0.40 
69.545	-0.9868	0.0288	1.9614	-15.0757	-84.5337	5.9204	4.5483	25.8069	173.0402	37.6100	-92	-283	191	100843	0.40 
69.639	-0.8794	0.0098	1.8682	-8.4839	-32.5928	-2.0142	2.9333	19.6930	173.0896	37.5900	-112	-276	194	100844	0.40 
69.764	-0.7695	0.0669	1.8857	-5.3101	-47.6685	2.3804	2.1588	16.0071	173.8147	37.5900	-126	-276	197	100844	0.40 
69.860	-0.6890	0.0649	1.7861	-0.3052	-9.6436	7.5684	2.0764	13.4857	175.0671	37.6000	-140	-274	200	100844	0.40 
69.967	-0.7241	0.0518	1.8159	-0.4272	24.9023	3.2349	2.0929	14.8590	176.6602	37.5800	-145	-273	199	100844	0.40 
70.061	-0.7969	0.0625	1.7988	8.9722	64.5142	1.3428	2.5708	19.6655	177.9291	37.5500	-140	-271	198	100844	0.40 
70.170	-0.8979	0.0488	1.8193	8.4229	91.4917	-1.6479	3.5211	27.7789	179.1431	37.5500	-124	-276	191	100844	0.40 
70.249	-1.4214	-0.0098	2.3340	11.8408	124.0234	-13.3057	4.8450	39.1388	-179.8407	37.5400	-94	-277	191	100844	0.40 
70.389	-1.8501	0.2759	2.2158	-9.1553	32.4097	-34.8511	2.0435	46.5710	175.7318	37.5000	-57	-276	192	100845	0.40 
70.483	-1.5723	0.0874	2.0249	-10.5591	-11.2915	-10.1929	-0.5109	46.3403	172.9852	37.5000	-35	-276	192	100844	0.40 
70.576	-1.2842	0.0513	1.7856	-5.4932	-41.5649	8.9111	-0.6152	43.2697	173.1555	37.4800	-32	-272	197	100845	0.40 
70.687	-1.1753	-0.0024	1.4790	-6.4087	-75.2563	8.2397	-0.5823	37.0020	173.4027	37.4600	-44	-269	199	100844	0.40 
70.798	-1.2231	0.0249	1.4258	-5.5542	-71.1670	8.4839	-0.9888	30.3442	173.2983	37.4300	-62	-265	198	100843	0.40 
70.877	-1.1958	-0.0371	1.9673	-2.9297	-25.7568	-4.4556	-1.1096	26.6583	173.7103	37.4400	-80	-261	199	100843	0.40 
71.001	-1.0146	-0.0967	1.8237	0.0000	-17.7002	0.4883	-0.3241	24.5270	175.0781	37.4400	-91	-260	202	100843	0.40 
71.080	-0.9980	0.0356	1.8789	-0.0610	-9.8877	-1.5869	-0.2966	23.6371	175.2814	37.4300	-95	-260	204	100842	0.40 
71.204	-1.0327	-0.0454	1.8804	-1.8311	-2.7466	3.4790	-0.2966	23.5657	175.8911	37.4400	-97	-261	205	100841	0.40 
71.283	-1.0068	-0.0239	1.8706	2.9907	-1.0376	-7.6294	-0.4285	23.7524	175.4517	37.4400	-97	-261	206	100840	0.40 
71.439	-1.0137	0.0107	1.8745	-0.1221	0.6714	-2.6855	-0.4834	23.9667	174.9792	37.4800	-97	-263	206	100840	0.40 
71.517	-1.0210	0.0122	1.8906	0.3052	4.0894	5.4321	-0.3571	24.3732	175.2979	37.4500	-97	-262	205	100839	0.40 
71.611	-1.0112	0.0039	1.8853	-0.1221	3.2959	1.8921	-0.2032	24.9884	175.6824	37.4800	-97	-264	204	100839	0.40 
71.736	-1.0195	-0.0308	1.8877	-2.4414	5.6763	7.2632	-0.0714	25.6366	176.3910	37.5000	-96	-263	204	100840	0.40 
71.814	-1.0200	0.0059	1.8755	0.1831	4.0283	-4.0283	-0.2472	26.2518	176.2756	37.5000	-95	-260	204	100840	0.40 
71.939	-1.0269	0.0059	1.8809	-0.3662	5.1270	-3.2959	-0.4449	26.9055	175.7922	37.5000	-90	-258	207	100840	0.40 
72.048	-1.0840	-0.0405	1.8213	-1.0986	11.3525	-9.7046	-0.7526	27.8119	175.2045	37.5200	-89	-260	204	100840	0.40 
72.127	-1.2300	-0.0366	1.5884	-2.3804	34.7900	-22.3999	-1.9775	30.3662	172.8699	37.5000	-85	-260	199	100840	0.40 
72.236	-1.2251	-0.0317	1.4438	2.0142	72.8760	-12.8174	-3.0377	35.9747	170.1947	37.5200	-66	-263	196	100840	0.40 
72.345	-1.3354	-0.0645	1.5972	9.4604	70.5566	-28.6865	-4.6033	43.5223	166.5253	37.5400	-44	-269	199	100840	0.40 
72.486	-1.2607	0.1255	1.6938	0.7324	29.5410	-12.1460	-6.8280	47.4280	161.5924	37.5200	-18	-271	199	100840	0.40 
72.533	-1.6528	0.0176	2.0889	6.5918	13.3057	5.7983	-5.4712	48.8727	162.2516	37.5200	-10	-274	195	100841	0.40 
72.658	-1.7603	0.0903	2.3496	7.7515	-64.3311	6.8970	-2.9553	46.7688	164.3884	37.5400	-19	-277	192	100842	0.40 
72.751	-0.9600	0.0508	1.7485	8.5449	-135.4370	5.3101	-0.4120	36.8097	166.0034	37.5300	-40	-274	185	100842	0.40 
72.877	-0.9482	0.0669	1.9360	2.1973	-91.6748	13.3057	1.1810	28.8281	167.8052	37.5300	-63	-278	191	100843	0.40 
72.986	-0.7529	0.0166	1.7012	-0.1221	-64.1479	1.8921	1.6479	20.2148	168.9972	37.5200	-97	-280	192	100843	0.40 
73.080	-0.7622	0.0728	1.8296	-4.6997	-21.4233	4.2725	1.2744	17.2705	170.0684	37.5100	-116	-277	198	100843	0.40 
73.158	-0.8066	0.0415	1.8203	-1.4038	10.7422	3.1128	1.0986	16.8860	171.4746	37.5200	-121	-274	197	100844	0.40 
73.283	-0.7974	0.0283	1.8037	-1.5869	45.6543	4.0894	1.0657	20.1544	172.9688	37.5100	-121	-276	195	100844	0.40 
73.377	-0.9209	0.0498	1.7432	1.8921	77.8198	1.4648	1.1646	26.6528	173.8312	37.4900	-109	-273	193	100844	0.40 
73.486	-0.9551	0.0503	1.9082	6.4697	133.0566	0.3662	1.6809	37.6337	174.5288	37.4800	-76	-275	189	100844	0.40 
73.580	-1.8462	0.1113	2.4277	1.5869	83.7402	-16.6016	2.3181	49.1913	174.6112	37.4800	-38	-274	191	100844	0.40 
73.705	-1.7383	0.0566	2.1250	-1.5869	3.7231	-7.9346	0.8240	52.1686	172.0624	37.4700	-12	-278	197	100844	0.40 
73.814	-1.4395	0.0771	1.8174	-5.0049	-50.2319	0.3662	0.1978	49.2682	170.8539	37.4400	-10	-277	204	100843	0.40 
73.893	-1.2915	0.0381	1.5063	-4.1504	-73.2422	15.4419	0.4889	42.6160	171.2714	37.4100	-22	-279	205	100843	0.40 
74.064	-1.2637	-0.0112	1.3667	-5.4321	-95.8252	14.0991	1.5326	34.6344	172.9303	37.3800	-40	-270	205	100843	0.40 
74.111	-1.1929	0.0322	1.3765	-9.2773	-62.4390	18.7988	1.4392	27.4219	173.5510	37.3800	-67	-268	204	100842	0.40 
74.236	-1.0830	-0.0957	1.8477	-3.0518	-35.8276	8.8501	0.9778	23.8953	174.5673	37.3800	-88	-263	204	100841	0.40 
74.314	-1.0078	-0.0176	1.8892	5.3711	-8.4229	-9.0332	0.8844	22.3956	174.4244	37.3800	-98	-261	205	100841	0.40 
74.393	-1.0137	0.0703	1.8936	3.6011	-3.6011	6.2866	1.2909	22.2693	174.1608	37.3700	-98	-265	211	100841	0.40 
74.517	-1.0288	-0.0215	1.8643	-1.8921	-3.9063	-1.7700	1.5326	22.0715	175.1385	37.3900	-102	-264	212	100840	0.40 
74.674	-0.9585	0.0596	1.8540	-6.7749	2.9297	-1.6479	1.0876	22.2748	175.1166	37.3700	-100	-260	213	100840	0.40 
74.736	-0.9917	0.0024	1.8833	-1.0986	10.5591	0.9155	0.5273	23.4174	175.2869	37.3900	-100	-264	211	100840	0.40 
74.830	-1.0020	0.0347	1.8550	1.2207	9.5825	-1.4648	0.4944	24.7577	175.2649	37.4100	-97	-262	206	100840	0.40 
74.955	-1.0615	-0.0366	1.8428	-3.8452	7.8125	-5.4321	0.0879	25.8289	174.9628	37.4100	-96	-262	208	100840	0.40 
75.033	-1.0996	-0.0405	1.7256	1.3428	21.7896	-5.3711	-0.3900	27.7405	174.1937	37.4100	-92	-259	202	100840	0.40 
75.142	-1.2539	-0.0991	1.6699	0.1221	48.3398	-3.6011	-0.5548	31.9922	173.5565	37.4200	-83	-262	201	100840	0.40 
75.252	-1.1963	-0.0195	1.5171	7.3853	60.0586	-20.6909	-1.5656	37.9193	170.8978	37.4300	-66	-262	199	100840	0.40 
75.345	-1.2036	0.1001	1.4741	12.8174	55.9082	3.9673	-1.7688	43.9124	168.7280	37.4400	-45	-267	200	100840	0.40 
75.455	-1.3701	-0.0537	1.6865	7.3242	38.4521	8.3618	0.2032	48.0981	169.4421	37.4400	-31	-271	204	100840	0.40 
75.549	-1.5137	0.0649	1.8848	12.3901	5.0659	4.9438	1.1481	48.8947	168.8818	37.4400	-23	-274	199	100840	0.40 
75.689	-1.6387	0.1919	2.1680	19.2261	-48.4009	22.3999	3.3893	46.4227	169.2664	37.4400	-28	-279	196	100841	0.40 
75.752	-0.1582	-0.0444	1.2026	6.8970	-114.3799	21.9727	5.6964	36.5021	170.8374	37.4400	-50	-281	196	100841	0.40 
75.892	-0.9839	0.1958	2.0347	-12.2070	-104.3701	4.3945	4.7296	29.1577	171.1725	37.4300	-75	-280	198	100842	0.40 
75.956	-0.8955	-0.0020	1.7388	-5.0659	-67.0776	5.2490	4.4275	19.2041	172.1887	37.4300	-112	-280	196	100843	0.40 
76.080	-0.7476	0.0923	1.8149	-3.6621	-35.7666	0.1221	3.6365	15.2271	172.6996	37.4000	-129	-278	202	100843	0.40 
76.174	-0.7026	0.0903	1.8018	-3.7231	-20.8130	-6.7139	3.0707	12.5409	173.0951	37.4000	-138	-279	205	100843	0.40 
76.267	-0.7412	0.0859	1.8276	-2.3193	5.2490	-1.7090	2.4884	12.5848	173.6005	37.3900	-139	-277	207	100843	0.40 
76.408	-0.7539	0.0835	1.8271	-0.6104	23.9258	-0.3052	2.3785	14.4855	174.6661	37.4000	-140	-283	208	100843	0.40 
76.486	-0.7656	0.0552	1.7930	1.3428	51.6968	-3.6011	2.3236	18.5449	175.6000	37.4000	-133	-281	202	100843	0.40 
76.611	-0.7983	0.0630	1.7671	5.2490	94.3604	-2.6245	2.5818	25.8453	176.2537	37.4000	-117	-279	200	100844	0.40 
76.689	-0.9512	0.0454	1.8618	6.1035	105.6519	-0.2441	3.7079	36.0736	177.2205	37.4100	-85	-281	197	100844	0.40 
76.799	-1.7959	0.0942	2.3276	0.7324	96.6797	-30.9448	3.5706	47.0544	176.5833	37.3800	-54	-282	194	100844	0.40 
76.924	-1.8496	0.1733	2.1880	-3.1128	10.3149	-21.6675	-0.5438	51.7621	170.9857	37.3700	-21	-285	200	100844	0.40 
77.003	-1.5693	0.0791	1.9668	-1.5869	-27.1606	-12.9395	-1.9885	49.8450	168.4314	37.3500	-8	-280	205	100843	0.40 
77.111	-1.3027	0.0771	1.6353	0.0610	-54.9927	14.4653	-1.2689	44.5221	168.4753	37.3400	-13	-281	208	100843	0.40 
77.236	-1.2349	0.0195	1.4233	-6.1035	-88.2568	0.5493	-0.3241	37.6666	169.7223	37.3400	-28	-274	209	100843	0.40 
77.330	-1.1904	0.0513	1.4600	-11.9629	-66.5283	7.5684	-0.9229	30.7617	169.7827	37.3100	-47	-273	206	100843	0.40 
77.439	-1.1421	-0.0420	1.7417	-6.4087	-44.1284	11.8408	-1.0767	26.3123	170.7990	37.3100	-62	-268	207	100842	0.40 
77.549	-1.0728	0.0088	1.8018	-0.8545	-25.6348	9.2163	-0.7581	23.0823	171.9635	37.3300	-80	-267	209	100842	0.40 
77.612	-1.0835	-0.0083	1.8560	-2.5635	-2.7466	10.4370	-0.4065	22.3627	173.1445	37.3300	-90	-265	209	100841	0.40 
77.736	-0.9717	-0.0063	1.8789	-1.4038	15.9912	3.2349	-0.3516	23.3569	173.9795	37.3500	-95	-263	207	100840	0.40 
77.830	-1.0479	0.0332	1.8828	0.7324	9.4604	3.2959	-0.0769	24.9335	174.3640	37.3600	-91	-263	208	100839	0.40 
77.955	-1.0576	-0.0054	1.8955	-3.3569	1.3428	0.0610	-0.3021	25.6091	174.4849	37.3600	-89	-263	207	100839	0.40 
78.065	-1.0371	-0.0049	1.8818	0.0000	2.3804	-0.8545	-0.4999	25.8893	174.5068	37.3500	-91	-262	203	100839	0.41 
78.143	-1.0298	0.0068	1.8350	-0.9766	9.5825	-2.9907	-0.3845	26.3013	174.4794	37.3500	-91	-262	205	100839	0.41 
78.268	-1.0518	-0.0469	1.8296	-1.5869	13.0005	-8.6670	-0.8075	27.3834	173.9630	37.3600	-87	-265	206	100839	0.41 
78.346	-1.1182	-0.0039	1.8062	-1.8921	12.2681	-9.0332	-1.6864	28.8776	172.5568	37.3500	-81	-264	200	100838	0.41 
78.456	-1.1636	-0.0181	1.7354	-6.8359	28.4424	3.1738	-2.1478	31.0858	172.1667	37.3700	-77	-259	202	100838	0.41 
78.580	-1.1392	-0.0361	1.6411	4.4556	54.6265	-7.4463	-2.8839	35.9747	170.6451	37.3700	-65	-263	198	100838	0.41 
78.674	-1.2866	-0.0205	1.6470	4.3335	72.5098	-13.6108	-3.3344	42.1490	168.8654	37.3700	-49	-264	194	100838	0.41 
78.783	-1.3525	0.0088	1.7388	9.7656	69.8853	-8.4839	-3.7463	48.0817	166.5692	37.3900	-28	-269	203	100839	0.41 
78.877	-1.5732	0.0864	1.8691	12.5732	28.8086	-8.9722	-2.6587	51.8500	165.9045	37.3800	-16	-273	204	100839	0.40 
78.986	-1.6831	0.1313	1.8936	7.9956	0.0610	3.2959	-1.6150	52.3279	165.3223	37.3900	-7	-276	200	100839	0.40 
79.080	-1.9346	0.1118	2.6709	2.1362	-57.5562	19.1040	0.8075	49.5868	167.1350	37.3900	-12	-275	196	100840	0.40 
79.205	-0.8740	0.0444	1.7339	0.0610	-97.2900	13.7329	2.8070	40.5890	169.2719	37.4000	-36	-275	192	100840	0.40 
79.283	-1.0596	0.1655	1.9614	-0.7324	-94.9707	13.2446	2.8839	31.4319	169.8926	37.3800	-64	-274	186	100841	0.40 
79.408	-0.8447	0.0088	1.7490	-2.3193	-47.8516	1.8921	3.0432	23.5162	170.8704	37.3700	-91	-274	192	100841	0.40 
79.487	-0.8438	0.0586	1.8364	-0.7935	-37.3535	1.0986	2.6093	19.9182	171.3977	37.3500	-108	-277	194	100841	0.40 
79.612	-0.8423	0.0488	1.8203	-1.0376	-0.6104	3.4790	2.4884	18.2263	172.3096	37.3700	-118	-278	197	100841	0.40 
79.721	-0.8496	0.0776	1.8462	-3.5400	29.4189	1.5869	2.4115	20.1709	173.5620	37.3600	-121	-274	196	100841	0.40 
79.830	-0.8975	0.0386	1.7861	-4.8828	62.6221	-1.7090	1.8567	24.8346	174.2542	37.3500	-114	-273	191	100841	0.40 
79.924	-0.9458	0.0586	1.7373	-0.1221	115.0513	-3.5400	1.5820	33.7555	174.6552	37.3500	-91	-271	184	100842	0.40 
80.049	-1.3481	0.1343	2.0371	8.5449	130.1270	7.3853	2.6697	46.0931	174.7760	37.3600	-55	-273	181	100842	0.40 
80.127	-1.9590	0.2642	2.0688	0.5493	34.6069	-3.3569	2.9443	55.1678	174.0894	37.3500	-15	-276	194	100842	0.40 
80.252	-1.7549	0.1362	1.9448	0.5493	-25.0854	-1.7700	1.8567	54.9207	172.0129	37.3300	-1	-281	201	100842	0.40 
80.330	-1.4531	0.1030	1.6523	-5.8594	-60.4858	4.6387	0.8844	49.5758	170.0574	37.3000	-6	-280	208	100841	0.40 
80.440	-1.3022	0.0244	1.5674	-5.7983	-74.0356	10.7422	0.9723	42.0831	170.3705	37.2800	-23	-274	207	100841	0.40 
80.534	-1.2285	0.0093	1.5869	-13.3057	-78.4912	4.8218	1.1700	34.7772	171.9086	37.2700	-46	-268	199	100841	0.40 
80.674	-1.1714	-0.0376	1.5649	-6.9580	-57.1289	20.5078	0.9448	28.1250	172.6721	37.2600	-67	-264	202	100841	0.40 
80.768	-1.1372	0.0000	1.7803	-2.6855	-30.3345	4.4556	0.5768	23.9722	172.8864	37.2700	-84	-264	206	100840	0.40 
80.862	-1.0635	-0.0259	1.8364	-1.0986	-17.5171	-13.1836	0.1648	21.9287	172.3920	37.2600	-93	-263	207	100840	0.40 
80.940	-1.0557	0.0356	1.8179	-1.1597	-0.9766	-12.3291	-0.3955	21.4948	171.0901	37.2800	-93	-261	213	100839	0.40 
81.065	-1.0034	0.0010	1.9077	1.0986	9.2163	-1.7700	-0.6647	22.4615	170.6726	37.2900	-94	-260	210	100839	0.41 
81.174	-1.0254	0.0493	1.8789	-4.9438	7.3242	5.2490	-0.5878	23.3405	171.1121	37.2900	-88	-260	208	100838	0.41 
81.268	-1.0117	-0.0029	1.8979	-4.3335	0.7324	4.7607	-0.8624	23.9722	171.8866	37.3000	-91	-262	211	100838	0.41 
81.377	-1.0220	0.0010	1.8853	0.8545	-0.4883	0.4883	-0.8569	24.2413	172.2656	37.3000	-90	-260	208	100838	0.41 
81.471	-1.0293	-0.0078	1.8892	-0.2441	1.9531	-1.3428	-0.8350	24.5050	172.3535	37.2900	-91	-259	205	100838	0.41 
81.581	-1.0190	-0.0156	1.8794	-0.3662	0.7324	-1.7090	-0.8789	24.8181	172.4030	37.3200	-89	-261	209	100838	0.41 
81.659	-1.0176	-0.0078	1.8848	-0.6714	0.3052	-1.4648	-0.9998	25.0653	172.3096	37.3200	-90	-264	210	100838	0.41 
81.784	-1.0229	0.0010	1.8818	-0.4272	0.2441	-0.3052	-1.0547	25.2686	172.3260	37.3100	-90	-263	204	100838	0.41 
81.862	-1.0278	-0.0005	1.8882	0.0610	0.9766	2.6245	-0.9778	25.5322	172.5513	37.3200	-87	-260	207	100838	0.41 
81.987	-1.0205	-0.0205	1.8857	0.5493	0.0000	0.1831	-0.8679	25.7904	172.8369	37.3300	-86	-261	208	100838	0.41 
82.081	-1.0186	-0.0112	1.8789	0.0000	0.9766	0.1831	-0.7965	26.0706	172.9797	37.3300	-87	-262	207	100838	0.41 
82.221	-1.0313	-0.0039	1.8862	-0.3052	1.1597	0.1221	-0.7745	26.3452	173.0896	37.3500	-88	-263	209	100837	0.41 
82.315	-1.0259	-0.0039	1.8789	0.0610	0.6714	0.2441	-0.7361	26.5430	173.2214	37.3300	-88	-264	209	100837	0.41 
82.393	-1.0293	-0.0020	1.8799	0.0000	1.3428	0.5493	-0.6702	26.7847	173.3972	37.3500	-89	-260	209	100837	0.41 
82.518	-1.0327	0.0010	1.8804	0.3662	1.9531	0.4883	-0.5933	27.0758	173.5730	37.3600	-88	-262	206	100837	0.41 
82.596	-1.0239	-0.0117	1.8931	0.4272	-0.1831	1.5259	-0.4504	27.2736	173.8806	37.3800	-92	-261	205	100837	0.41 
82.706	-1.0298	-0.0112	1.8828	1.0376	-1.2207	0.6714	-0.2911	27.3120	174.0948	37.3600	-88	-265	210	100837	0.41 
82.831	-1.0254	-0.0098	1.8823	0.6714	-2.9907	0.2441	-0.1868	27.1857	174.2102	37.3500	-87	-262	208	100837	0.41 
82.909	-1.0151	-0.0083	1.8843	0.4272	-3.1128	0.0610	-0.1373	26.9714	174.2816	37.3700	-90	-259	207	100837	0.41 
83.018	-1.0171	0.0015	1.8804	0.4883	-2.4414	-0.8545	-0.1099	26.7957	174.2651	37.3700	-89	-262	210	100837	0.41 
83.128	-1.0146	0.0039	1.8828	0.1831	-1.8921	0.1831	-0.1154	26.6913	174.2432	37.3800	-87	-260	208	100837	0.41 
83.221	-1.0186	0.0034	1.8838	0.3052	-0.1831	-1.2207	-0.1044	26.6638	174.2926	37.3600	-91	-262	210	100836	0.41 
83.300	-1.0039	0.0044	1.8828	0.3052	-1.0376	0.0000	-0.0659	26.6473	174.4244	37.3800	-92	-261	207	100836	0.41 
83.424	-1.0049	0.0020	1.8789	0.3052	-1.0986	0.1221	-0.0220	26.6254	174.5453	37.3700	-92	-262	208	100836	0.41 
83.519	-1.0059	-0.0020	1.8818	-0.6104	-0.2441	0.3052	-0.0385	26.6418	174.6277	37.3800	-91	-262	207	100836	0.41 
83.643	-0.9971	-0.0063	1.8857	0.1831	0.4883	0.4883	-0.0385	26.7297	174.7540	37.3800	-89	-260	208	100837	0.41