StartTime: 2017-07-11 16:15:19.429
Time(s)	ax(g)	ay(g)	az(g)	wx(deg/s)	wy(deg/s)	wz(deg/s)	AngleX(deg)	AngleY(deg)	AngleZ(deg)	T(°)	hx	hy	hz	Pressure(Pa)	Altitude(m) 
850.264	-1.1084	-0.0752	1.8657	-1.2207	-0.8545	-6.4087	-0.9448	30.3168	154.6545	43.8300	-9	-261	248	100891	0.36 
850.389	-1.1226	-0.0903	1.8760	-0.4883	1.5259	-2.5024	-1.4941	30.3662	153.8361	43.8200	-6	-260	247	100891	0.36 
850.576	-1.1118	-0.1362	1.8525	-1.3428	4.5776	-12.0239	-2.1533	30.7068	152.8583	43.8300	-2	-260	246	100891	0.36 
850.639	-1.1445	-0.1553	1.8506	1.1597	5.7373	-16.1133	-3.2739	31.2067	150.9906	43.8000	0	-260	244	100891	0.36 
850.717	-1.1387	-0.0762	1.8521	10.1929	11.5967	-13.7939	-3.6310	31.8274	149.1559	43.8200	8	-259	248	100890	0.36 
850.826	-1.1191	0.0815	1.8491	21.4844	7.3853	3.7842	-2.2137	33.0908	148.5077	43.8100	15	-263	252	100890	0.36 
850.935	-1.2085	0.1938	1.9492	21.7896	13.6108	12.7563	0.8569	34.3323	149.7766	43.8000	21	-270	262	100889	0.36 
851.060	-1.1431	0.1216	1.8618	24.4141	-6.5918	10.8643	4.2078	33.9368	151.7212	43.7900	17	-274	268	100890	0.36 
851.154	-1.0464	0.1782	1.7852	23.1934	-5.5542	6.5918	6.9214	32.9205	152.3529	43.8100	15	-283	277	100890	0.36 
851.249	-1.1050	0.1377	1.8081	18.1885	8.5449	-8.5449	8.7067	33.2556	152.3859	43.8000	15	-282	281	100890	0.36 
851.357	-1.0732	0.2139	1.7681	9.8267	18.9819	-26.9165	8.7781	34.8651	150.4028	43.8000	21	-284	290	100890	0.36 
851.467	-1.0225	0.3013	1.8423	-14.8926	8.9111	-11.7188	6.8665	36.0571	148.0463	43.7900	30	-283	293	100890	0.36 
851.592	-1.3770	0.4478	2.0815	-17.1509	1.2817	-30.2124	3.9825	36.4471	146.1346	43.8100	36	-281	289	100891	0.36 
851.686	-1.3994	0.0137	1.7778	-30.7007	22.2168	-45.7153	0.0934	35.9747	142.7783	43.7900	39	-276	286	100891	0.36 
851.764	-1.1836	-0.0439	1.6958	-33.8135	-4.1504	9.2773	-3.3508	35.4034	142.5476	43.7700	40	-271	275	100891	0.36 
851.889	-1.1401	-0.0986	1.5317	-24.2920	18.1274	-29.1748	-6.5643	35.5518	141.9489	43.7400	40	-263	261	100891	0.36 
852.029	-1.0854	-0.1992	1.8154	-17.2119	26.8555	-11.8408	-9.3329	37.1613	140.5206	43.7200	43	-258	257	100891	0.36 
852.092	-1.1626	-0.2188	2.2065	6.5918	-1.2817	-25.3296	-10.6952	37.3920	138.9386	43.7400	47	-255	254	100891	0.36 
852.217	-0.9365	0.0908	1.1758	31.3110	-39.1846	70.1904	-5.8722	36.1121	143.0804	43.7500	41	-257	256	100891	0.36 
852.311	-1.1328	0.0815	1.6963	26.4282	-15.1367	14.5264	-0.6537	36.1285	147.4640	43.7100	28	-265	262	100890	0.36 
852.436	-1.2554	-0.0493	1.5186	13.2446	12.8174	37.1704	3.5376	36.6943	151.2048	43.7000	16	-267	266	100891	0.36 
852.545	-1.1382	0.0996	1.6509	8.6060	15.9912	3.9673	5.7239	37.9138	152.9846	43.7000	12	-272	273	100890	0.36 
852.639	-1.0776	0.1489	2.2139	-13.7329	0.9155	38.4521	6.6357	38.5181	155.4510	43.6900	6	-270	273	100890	0.36 
852.764	-1.3232	-0.1953	1.5283	-28.3203	-37.9639	-15.6860	2.7740	37.5952	153.1000	43.6900	5	-268	268	100890	0.36 
852.858	-1.2378	0.0859	1.6440	-31.7993	-24.9023	17.7002	-1.7633	37.4194	150.6226	43.6700	7	-262	260	100889	0.36 
852.967	-1.2358	-0.1030	1.5112	-25.8789	-1.4648	-0.8545	-4.4989	36.8976	151.2762	43.6700	5	-253	249	100889	0.36 
853.061	-1.1177	-0.2544	1.8872	-13.9771	18.2495	3.3569	-5.9052	37.7216	151.4355	43.6700	2	-248	241	100888	0.36 
853.186	-1.1362	-0.2939	2.0073	15.0757	-11.2915	-10.4370	-7.5092	37.4963	149.1888	43.6600	7	-245	244	100888	0.36 
853.279	-1.4600	-0.1743	1.7222	22.3999	37.8418	56.7017	-2.5488	37.4304	153.3472	43.6600	3	-249	249	100887	0.36 
853.389	-1.2725	0.0264	1.6519	36.2549	-12.3291	-4.2725	0.4944	37.1228	154.3799	43.6300	-6	-255	252	100887	0.36 
853.498	-1.1245	0.0571	1.2754	20.9961	6.6528	2.5635	3.7024	37.8094	154.4403	43.6300	-6	-256	259	100887	0.37 
853.608	-1.0898	0.2134	1.9116	-6.7749	-25.3906	21.5454	6.2073	38.4521	156.7474	43.6000	-6	-259	265	100886	0.37 
853.702	-1.8228	0.0601	2.3076	-6.1035	-23.5596	-46.9971	3.4332	36.2000	154.6216	43.6100	-8	-260	263	100886	0.37 
853.811	-1.3740	-0.0884	1.7983	-14.8926	-36.4380	-21.9116	-1.5216	34.5740	148.5132	43.6000	-2	-252	258	100886	0.37 
853.905	-1.1533	-0.1001	1.4155	-19.1650	-3.7842	-10.4980	-3.6914	32.8656	147.7222	43.5900	-1	-249	253	100885	0.37 
854.030	-1.1694	-0.2881	1.7529	-7.9956	7.2021	2.1362	-4.9933	33.5028	147.5244	43.5900	0	-245	247	100885	0.37 
854.108	-1.0444	-0.1450	2.0068	6.1035	-5.5542	-29.0527	-6.5094	33.8983	145.0854	43.5600	3	-241	243	100885	0.37 
854.248	-1.8730	-0.1147	2.5044	-2.1973	-4.0283	-8.6670	-6.6357	35.4694	143.3990	43.5600	11	-242	250	100885	0.37 
854.373	-1.4263	-0.1411	2.0962	19.2871	-23.6206	4.8828	-4.4714	34.6893	144.8877	43.5500	10	-239	253	100884	0.37 
854.467	-1.2515	0.0742	1.6230	23.5596	12.3901	25.8789	-1.8292	34.4751	145.1843	43.5300	12	-251	255	100884	0.37 
854.546	-1.2241	0.0425	1.5703	25.2075	17.5171	-2.3193	1.4557	35.9528	146.8488	43.5100	10	-253	259	100884	0.37 
854.701	-1.0615	0.1265	1.9824	0.7935	2.1362	3.4180	3.7683	37.3700	148.5022	43.5200	9	-258	266	100883	0.37 
854.780	-1.8901	0.0405	2.1626	-10.0708	19.5313	-18.3105	2.5488	36.5186	148.6890	43.5300	7	-257	269	100883	0.37 
854.890	-1.6709	0.3467	2.0806	-18.3716	23.8037	-18.7988	-0.7471	35.8868	144.7559	43.5300	9	-254	266	100883	0.37 
854.998	-1.2368	-0.1294	1.4326	-31.3721	12.8784	11.4136	-2.6752	35.0519	146.4148	43.5200	8	-250	256	100883	0.37 
855.077	-1.1812	-0.1440	1.7246	-10.1929	11.7798	-3.5400	-4.7131	36.6724	146.4807	43.5200	4	-245	248	100882	0.37 
855.233	-1.0732	-0.2534	2.0161	2.8076	-5.0049	-24.4751	-6.6357	36.6669	144.4427	43.5300	12	-244	248	100882	0.37 
855.296	-1.7129	-0.0200	2.3354	11.5356	-7.9956	-16.0522	-7.0258	36.8756	142.6245	43.5400	20	-242	249	100881	0.37 
855.405	-1.3862	0.0088	1.8379	25.0854	-16.7236	29.3579	-2.9608	37.5897	145.5304	43.5300	19	-244	250	100881	0.37 
855.515	-1.2813	0.1768	1.5645	25.8789	0.3662	26.2451	0.6317	37.3041	146.8707	43.5200	11	-248	258	100881	0.37 
855.623	-1.2383	0.0605	1.5908	26.0620	21.1792	-2.8687	4.5538	37.7545	149.0680	43.5000	7	-253	264	100881	0.37 
855.733	-1.3481	0.1284	2.1177	-4.5166	5.5542	18.4326	6.9049	38.8367	151.4301	43.5200	6	-259	270	100880	0.37 
855.858	-1.9399	0.1206	2.5010	-0.7935	-2.9297	-58.8989	4.4275	37.2601	149.3097	43.5200	6	-260	268	100879	0.37 
855.952	-1.7559	0.0571	2.1899	-18.8599	-15.8081	-59.2651	-1.5930	34.8596	141.0425	43.5200	19	-255	266	100879	0.37 
856.061	-1.2285	-0.0562	1.4292	-34.3018	-1.1597	-1.7700	-4.7461	33.3380	140.2899	43.5100	25	-249	257	100878	0.37 
856.155	-1.2031	-0.1772	1.8071	-28.0762	11.9019	32.6538	-6.4325	34.5685	142.4103	43.5000	21	-243	246	100878	0.37 
856.295	-1.1348	-0.2134	2.1563	-6.8970	13.0005	-15.8691	-7.5641	35.8319	143.7891	43.4900	20	-240	241	100878	0.37 
856.389	-2.0166	-0.2842	2.5767	5.1270	30.5176	-0.0610	-7.2565	36.5680	143.2837	43.5200	21	-240	241	100878	0.37 
856.483	-1.6646	-0.1714	2.1831	21.0571	-5.5542	37.8418	-3.1091	36.2659	147.4640	43.5100	17	-241	239	100877	0.37 
856.593	-1.2451	0.0835	1.5664	25.1465	-3.1128	23.6816	1.1591	34.7882	149.7546	43.5000	11	-247	245	100877	0.37 
856.717	-1.1787	0.0864	1.5854	20.0195	11.1694	16.6016	4.6307	35.2386	151.9025	43.4800	2	-254	248	100876	0.37 
856.796	-1.1494	0.1929	2.0039	-2.1973	15.3809	16.9067	6.7896	36.7438	154.2096	43.4900	0	-258	259	100876	0.37 
856.905	-1.4521	0.2471	1.9434	-14.4043	0.1221	-37.8418	5.3119	35.8319	154.0283	43.5000	0	-258	258	100876	0.37 
857.061	-1.4438	-0.0327	1.8511	-17.0288	6.2866	-58.1055	1.1810	34.2004	148.6066	43.4800	4	-256	253	100875	0.37 
857.108	-1.3120	-0.0557	1.5586	-30.7007	7.6294	-11.9629	-2.9333	33.6346	145.6238	43.4700	12	-248	244	100875	0.38 
857.280	-1.2012	-0.1211	1.6455	-16.2354	18.4937	-0.2441	-5.4327	34.4147	144.9591	43.4800	15	-240	236	100874	0.38 
857.343	-1.1187	-0.2842	1.9067	-10.2539	20.8130	-8.1787	-6.5094	36.1450	145.1898	43.4700	19	-237	230	100874	0.38 
857.483	-1.3325	-0.1729	1.8433	16.4795	-4.0283	-7.6294	-8.2068	35.9912	142.2675	43.4800	28	-237	232	100874	0.38 
857.577	-1.2705	-0.1885	1.5005	27.7710	3.3569	15.0146	-5.9161	35.5957	142.8168	43.4800	31	-238	237	100874	0.38 
857.671	-1.2891	-0.1255	1.7524	32.2876	-4.0283	-15.6860	-2.7466	35.2826	143.5309	43.4800	32	-246	241	100873	0.38 
857.780	-1.1860	-0.0479	1.4526	34.1797	5.3711	-17.2119	-0.1318	35.5573	141.9104	43.4600	38	-250	248	100872	0.38 
857.905	-1.1694	0.2373	1.6577	9.1553	16.2354	4.5776	1.5161	37.1448	140.8282	43.4600	40	-254	258	100872	0.38 
857.999	-0.9707	0.3247	2.0010	-21.7896	-48.7061	49.6826	2.6587	35.7605	144.0582	43.4500	40	-260	258	100872	0.38 
858.093	-1.3257	-0.5493	1.7554	-17.2729	-81.3599	22.0337	2.6697	33.3105	148.2770	43.4400	28	-261	251	100871	0.38 
858.202	-1.1226	-0.0889	1.5547	-17.7002	-16.4185	-2.0752	-0.9009	33.2776	145.2063	43.4300	22	-258	241	100871	0.38 
858.342	-1.1636	-0.1704	1.5591	-18.0664	-0.7324	-12.3291	-3.9331	33.6292	144.0472	43.4300	24	-253	231	100870	0.38 
858.421	-1.2046	-0.0942	1.8774	5.9814	19.1650	-34.4849	-6.5698	34.6838	140.7404	43.4300	33	-252	229	100870	0.38 
858.530	-1.1846	0.0078	2.1367	6.2256	-8.7891	-20.4468	-7.7563	35.7385	137.5269	43.4200	48	-250	237	100870	0.38 
858.671	-1.8481	-0.0596	2.6309	12.0850	5.0659	-40.3442	-7.6904	36.6064	135.1373	43.4500	59	-249	239	100869	0.38 
858.733	-1.3271	-0.0376	1.7695	30.8228	-51.7578	-7.4463	-4.5923	35.2716	135.6592	43.4200	60	-256	246	100868	0.38 
858.859	-1.2373	0.1167	1.5864	28.3813	-23.0713	2.3193	-2.3071	32.9974	134.4232	43.4200	62	-258	255	100868	0.38 
858.954	-1.1836	-0.0430	1.5483	30.1514	-1.0986	-14.6484	0.3845	31.9867	134.3079	43.4200	62	-261	256	100867	0.38 
859.109	-1.1484	0.2285	1.7754	22.2778	2.9907	-11.9019	2.1918	32.2174	132.3743	43.4300	67	-266	263	100866	0.38 
859.203	-1.1821	0.1270	2.0693	7.8735	7.8125	-11.2305	2.9498	33.8214	132.2919	43.4100	76	-268	270	100867	0.38 
859.281	-1.6265	0.4629	2.5420	-23.6816	35.4004	-23.6206	1.9885	34.6564	131.9897	43.4300	82	-268	275	100867	0.38 
859.406	-1.5547	0.0757	1.7451	-21.3013	16.7847	-49.3164	-1.8073	34.1840	129.7870	43.4300	87	-259	273	100866	0.38 
859.531	-1.1963	-0.0664	1.5566	-14.6484	-17.7612	-33.7524	-5.5811	32.4207	126.3593	43.4200	93	-248	261	100866	0.38 
859.594	-1.3052	-0.1470	1.7002	7.3853	-10.5591	-78.4912	-9.8273	31.2891	119.4489	43.3900	102	-231	255	100866	0.38 
859.705	-1.1460	-0.1221	1.7920	19.1650	-11.4746	-93.8721	-12.8156	28.3997	110.3796	43.4000	118	-211	252	100866	0.38 
859.800	-1.0693	-0.1099	1.8599	24.7803	-2.6245	-85.7544	-14.5459	25.6366	101.5576	43.4000	131	-190	252	100866	0.38 
859.924	-1.1021	0.0693	2.2671	22.4609	-4.1504	-37.3535	-14.3097	23.7030	97.0862	43.4000	139	-171	248	100866	0.38 
860.003	-1.3828	-0.2329	1.7354	4.0283	-13.6108	-43.5791	-15.2600	22.1429	94.5978	43.4300	135	-157	247	100866	0.38 
860.127	-1.3105	-0.3120	1.7749	25.9399	-13.1836	-89.6606	-15.9631	21.2201	89.8352	43.4200	132	-146	245	100866	0.38 
860.221	-1.2324	-0.0640	1.8076	24.4141	0.6104	-95.3369	-15.7819	19.2920	82.2437	43.4100	131	-126	243	100866	0.38 
860.346	-1.1216	0.1523	1.8027	15.8691	6.2866	-74.8901	-15.9576	18.0780	75.1575	43.4200	128	-109	243	100866	0.38 
860.425	-1.0425	0.0723	1.8213	5.7983	-12.8174	-35.3394	-15.8423	17.6880	72.5317	43.4200	124	-96	241	100866	0.38 
860.535	-1.1006	0.0005	2.0034	2.3804	-6.7749	-35.3394	-15.7983	16.5509	71.3507	43.4300	117	-86	243	100865	0.38 
860.629	-1.5137	-0.0679	2.1147	13.4888	-18.4326	-57.8613	-15.7599	14.5404	68.6316	43.4200	106	-74	242	100865	0.38 
860.754	-1.4946	0.0664	2.1597	-6.0425	29.9683	-92.2852	-17.3199	13.7933	61.6113	43.4200	92	-62	230	100865	0.38 
860.863	-1.0488	-0.2646	1.7642	-21.1182	2.4414	-58.5938	-19.9127	14.0350	58.9417	43.4300	85	-41	235	100865	0.38 
860.926	-1.0352	-0.2183	1.7813	2.6245	12.2070	-68.9087	-22.0111	13.6011	53.9429	43.4300	78	-34	241	100865	0.38 
861.051	-1.0684	-0.1919	1.9224	25.5127	18.4326	-76.4771	-21.6870	13.5242	48.0981	43.4200	62	-20	242	100865	0.38 
861.144	-1.0732	-0.0156	2.2612	30.0903	-2.9297	-52.7344	-20.0555	13.4473	43.9453	43.4200	49	-14	237	100865	0.38 
861.256	-1.3394	-0.2119	1.7061	8.2397	-12.7563	-41.0767	-18.9020	12.1179	42.5446	43.4200	36	-8	236	100865	0.38 
861.365	-1.2720	-0.4927	1.9004	21.4233	-6.5918	-61.8286	-18.3691	13.8812	42.0721	43.4000	30	-9	236	100865	0.38 
861.444	-1.2139	0.0796	1.7837	32.2876	27.8931	-46.8750	-16.4960	14.9854	38.6115	43.4300	17	-7	233	100865	0.38 
861.568	-1.1685	0.1157	1.8208	29.1748	17.4561	-39.4897	-14.0845	17.1716	37.2327	43.4100	10	-12	226	100865	0.38 
861.678	-1.1411	0.1152	1.9160	15.3809	5.9814	-12.0239	-12.4805	19.4238	38.0676	43.4100	8	-17	224	100865	0.38 
861.756	-1.2437	0.2622	2.0879	3.4790	6.1646	-11.3525	-11.6510	20.3577	40.4681	43.4200	3	-19	225	100865	0.38 
861.881	-1.3228	-0.2095	1.4902	-8.6060	-16.2354	-114.8071	-12.7551	20.0006	39.2157	43.4200	4	-20	224	100865	0.38 
861.975	-1.2144	-0.1797	1.6167	-20.7520	1.6479	-34.4238	-16.7487	20.6323	35.7495	43.4000	-6	-12	228	100865	0.38 
862.053	-1.2104	-0.0869	1.5049	-8.9722	3.6011	-57.4951	-19.7314	21.0663	33.3490	43.3800	-12	-6	235	100866	0.38 
862.178	-1.2114	0.0054	1.7158	-12.0850	9.0942	-1.6479	-21.4014	21.9232	32.5800	43.3800	-21	-3	236	100865	0.38 
862.272	-1.1973	-0.1577	2.1641	-6.8359	16.6016	-9.2773	-22.4506	24.1919	33.8159	43.3800	-19	1	237	100865	0.38 
862.381	-1.7900	0.1895	2.3418	6.6528	-28.6865	-6.7139	-21.2915	25.7465	35.0684	43.3700	-20	2	240	100865	0.38 
862.475	-1.7236	-0.1074	2.1572	-3.0518	-16.6016	19.0430	-18.4680	27.5153	41.4624	43.3800	-16	0	242	100865	0.38 
862.600	-1.3223	0.1172	1.7412	27.8320	-7.9346	11.3525	-15.6116	26.8176	45.3571	43.3600	-14	-1	244	100865	0.38 
862.678	-1.2349	-0.0176	1.4629	26.3672	7.7515	6.8359	-11.7444	28.0865	49.3231	43.3400	-12	-7	241	100865	0.38 
862.787	-1.3638	0.3071	2.0117	2.8076	35.0342	20.6299	-9.2230	31.9318	52.4103	43.3400	-8	-6	238	100864	0.38 
862.897	-1.7090	0.0591	2.3857	-30.5176	10.1929	7.9956	-9.4867	32.9095	57.2552	43.3400	-1	-9	239	100865	0.38 
863.006	-1.7583	-0.1382	2.1206	-2.4414	40.0391	-84.8389	-13.2220	31.4099	54.5251	43.3300	-1	-6	247	100864	0.38 
863.100	-1.2739	0.1084	1.4819	-22.9492	-7.3242	-15.1978	-15.1556	30.1135	53.6133	43.3200	-12	0	248	100864	0.38 
863.225	-1.2070	-0.1328	1.7705	-13.9771	1.4038	8.0566	-16.5619	30.4321	55.7336	43.3300	-20	3	254	100864	0.38 
863.381	-1.2402	-0.0303	2.0171	-5.1270	11.9629	-24.6582	-17.4847	30.5530	55.3107	43.3100	-19	8	257	100864	0.38 
863.428	-1.5029	-0.5952	2.0518	9.4604	51.3916	-31.4331	-17.7539	30.4376	54.5746	43.3300	-19	7	259	100863	0.38 
863.538	-1.4795	-0.3506	1.9844	22.0947	31.8604	18.2495	-14.9359	31.7560	56.4752	43.3000	-20	4	257	100863	0.39 
863.632	-1.2813	0.1533	1.6924	36.6211	-9.0942	-8.7280	-10.8929	30.9430	58.0243	43.3100	-25	0	250	100862	0.39 
863.741	-1.2070	0.0117	1.3696	20.0806	8.4229	21.1792	-6.5753	31.4154	62.1112	43.2900	-24	-2	247	100862	0.39 
863.866	-1.1997	0.0610	1.8062	3.4180	15.0146	13.4888	-4.2737	33.4424	65.3741	43.2800	-17	-8	240	100862	0.39 
864.007	-1.2290	0.1504	2.2891	-27.5269	-38.8184	-25.4517	-4.7736	34.1895	67.7582	43.2900	-12	-11	241	100861	0.39 
864.069	-1.2241	-0.6440	1.6714	-9.5825	-62.8052	-52.3071	-7.8003	30.8386	66.8024	43.2900	-17	-6	248	100861	0.39 
864.148	-1.1680	0.0513	1.6182	-15.1367	-32.3486	-20.9961	-11.3983	27.4933	61.8365	43.3000	-34	-3	250	100861	0.39 
864.273	-1.2090	-0.1138	1.5142	-21.4844	11.9629	-0.3052	-13.2001	27.0428	62.9187	43.2800	-38	-2	250	100860	0.39 
864.413	-1.1123	-0.2544	1.8252	-16.8457	27.3438	9.0332	-13.9417	29.3555	64.9402	43.2800	-39	-2	253	100860	0.39 
864.476	-0.8672	-0.1343	2.1675	11.4746	-40.9546	-14.8926	-14.7162	28.8666	64.0613	43.2700	-35	-1	262	100859	0.39 
864.632	-1.5464	0.6147	2.0181	19.0430	-59.9976	51.3916	-12.5299	29.3060	65.8191	43.2900	-32	-4	263	100859	0.39 
864.694	-1.2505	0.0879	1.7842	25.6958	-24.0479	25.7568	-6.7950	30.0092	73.1525	43.2800	-26	-5	255	100859	0.39 
864.773	-1.2119	0.0693	1.5122	20.2637	15.1367	30.5176	-2.8619	31.0968	76.5967	43.2700	-17	-10	249	100858	0.39 
864.913	-1.2568	0.0913	1.7705	15.4419	22.8271	8.3618	0.0549	33.7390	79.5520	43.2700	-10	-14	253	100858	0.39 
865.022	-1.1470	0.1450	2.1060	-13.7329	-2.8076	7.9956	0.7800	35.0299	81.6394	43.2600	-4	-18	254	100858	0.39 
865.101	-2.1074	-0.2217	2.5962	2.2583	-8.7891	-1.5869	-1.6809	34.2004	81.0352	43.2800	-3	-16	256	100858	0.39 
865.257	-1.5078	0.1147	1.9844	-11.6577	-18.7988	-45.7153	-6.2952	32.0636	73.9270	43.2900	-14	-11	259	100857	0.39 
865.335	-1.2124	-0.0010	1.5166	-25.8179	-3.7842	-9.5825	-9.2395	31.2671	73.2184	43.2800	-19	-9	263	100857	0.39 
865.429	-1.1377	-0.0952	1.7622	-15.8081	3.8452	-2.3193	-11.0413	31.4813	73.5974	43.2800	-26	-5	268	100857	0.39 
865.507	-1.1465	-0.1362	1.9058	-3.2959	27.4048	-15.4419	-11.6620	32.5031	73.6633	43.2800	-20	-5	272	100857	0.39 
865.632	-1.1772	-0.1826	1.9990	5.4932	12.7563	-17.2729	-11.9257	33.3710	72.7734	43.2800	-20	-3	272	100857	0.39 
865.741	-1.4199	0.0791	1.6553	17.9443	8.3618	32.5317	-10.5469	34.5685	74.0094	43.2700	-18	0	271	100857	0.39 
865.836	-1.2217	-0.0303	1.6689	31.6162	-22.5830	-0.2441	-7.0642	33.8434	76.5527	43.2700	-17	-2	272	100856	0.39 
865.946	-1.1865	-0.0112	1.5444	31.6772	-4.0283	9.2773	-3.2355	33.3765	77.8271	43.2500	-16	-2	267	100856	0.39 
866.055	-1.2778	0.0981	1.7227	19.7754	7.0801	-6.8359	-0.3790	33.5907	78.8434	43.2600	-17	-3	262	100855	0.39 
866.165	-1.1333	0.2368	1.8950	-3.6011	10.6812	10.5591	0.8569	34.0961	80.3156	43.2400	-17	-8	258	100855	0.39 
866.258	-1.2734	0.0723	2.0181	-22.7661	-6.4697	23.4985	1.3184	33.7555	84.7595	43.2400	-11	-9	262	100855	0.39 
866.362	-1.1230	-0.2510	1.4927	-23.5596	-4.8828	-37.1704	-0.6757	33.1622	85.3363	43.2600	-9	-3	267	100855	0.39 
866.487	-1.2695	0.0029	1.5752	-35.3394	0.3052	6.4697	-3.3728	33.1512	85.2374	43.2500	-7	1	272	100855	0.39 
866.566	-1.2056	-0.2080	1.5659	-21.9727	-12.8174	14.2822	-5.7404	33.0853	86.4624	43.2600	-6	10	280	100855	0.39 
866.690	-1.1270	-0.0757	1.8022	-9.5825	10.2539	7.1411	-6.5369	33.5907	86.7810	43.2500	-3	10	284	100855	0.39 
866.769	-1.1191	-0.0889	2.0020	-1.5259	5.4321	6.6528	-6.4984	35.3101	87.0886	43.2400	-2	12	292	100854	0.39 
866.893	-1.7471	-0.3672	2.6729	8.9111	33.3252	-32.0435	-6.8665	36.3318	84.6332	43.2400	-1	12	294	100854	0.39 
866.987	-1.6997	-0.2305	2.1445	22.8882	10.8643	-20.9351	-4.2297	37.6392	84.7815	43.2600	-2	14	287	100854	0.39 
867.097	-1.3809	0.0771	1.7231	30.1514	-2.5024	-7.7515	-2.0874	36.0791	83.0402	43.2300	-8	15	277	100854	0.39 
867.206	-1.3208	0.0000	1.4736	26.9775	5.2490	9.7046	1.6095	36.3538	84.6991	43.2200	-9	13	268	100854	0.39 
867.300	-1.1201	0.2856	1.6880	8.8501	18.1274	16.1743	4.1748	37.6721	85.9351	43.2300	-7	9	262	100854	0.39 
867.424	-1.2939	0.1265	2.0918	-31.0059	-16.6016	22.5220	5.3174	38.2104	90.2856	43.2500	-3	12	265	100853	0.39 
867.549	-1.2588	-0.0933	1.4780	-13.9771	-22.1558	-33.9355	3.3398	36.5460	90.1813	43.2500	2	13	268	100853	0.39 
867.659	-1.1743	0.0469	1.5996	-27.2827	-11.7188	16.7847	1.4063	35.8813	89.7473	43.2400	0	23	267	100853	0.39 
867.737	-1.2002	-0.1406	1.5186	-21.3623	-6.1035	-10.0098	-1.1591	34.8926	89.5276	43.2300	-2	28	270	100852	0.39 
867.893	-1.1143	-0.1362	1.7358	-9.0332	6.8359	12.1460	-2.6587	34.7113	88.7970	43.2300	-4	30	273	100852	0.39 
867.956	-0.9497	-0.1367	1.8472	7.2021	3.3569	-21.3013	-3.5706	35.0464	86.3416	43.2300	-4	34	275	100852	0.39 
868.065	-1.7871	0.1890	2.4834	-0.7324	-34.3628	-1.4038	-3.6639	37.0898	83.8367	43.2400	-3	35	273	100851	0.39 
868.159	-1.5508	-0.0464	1.9595	26.6113	-36.1938	-8.3008	-0.5109	36.4801	86.7480	43.2400	-1	37	270	100851	0.39 
868.284	-1.3633	0.1387	1.6680	32.2266	7.6904	-12.2070	1.6864	35.1453	84.2596	43.2300	-8	38	255	100851	0.40 
868.362	-1.2417	0.0991	1.4858	24.4141	11.1694	15.0757	5.3064	36.0956	85.2704	43.2100	-14	32	241	100850	0.40 
868.518	-1.2969	0.3364	1.9072	8.6060	19.1650	7.8125	7.8937	38.2159	86.5778	43.2200	-10	26	233	100850	0.40 
868.596	-1.1143	0.2144	1.9551	-22.5220	0.1831	6.2866	7.8333	38.4247	88.1488	43.2000	-7	28	229	100850	0.40 
868.690	-1.4521	-0.3716	1.9775	-29.5410	-56.9458	-1.3428	5.5811	37.7545	88.8519	43.2300	0	31	235	100850	0.40 
868.800	-1.3477	-0.0649	1.6929	-35.1563	-41.4429	7.7515	-0.3900	36.5845	83.9905	43.2100	-8	38	239	100850	0.40 
868.893	-1.2197	-0.1836	1.6265	-23.9868	-15.5640	-22.6440	-4.1803	34.8267	82.0459	43.2000	-21	50	243	100849	0.40 
869.018	-1.2109	-0.0518	1.7446	-9.0332	7.5684	-17.7612	-7.1191	33.9587	77.7667	43.1900	-31	51	245	100849	0.40 
869.112	-1.1597	-0.1367	1.8354	0.2441	22.0947	-11.1694	-8.2343	34.9036	75.0311	43.2100	-36	55	240	100849	0.40 
869.206	-1.1318	-0.0420	1.9375	10.8032	0.1831	-13.8550	-8.5254	35.3595	71.6199	43.2000	-39	54	243	100849	0.40 
869.362	-1.4209	-0.1060	1.7217	11.3525	18.7988	33.9966	-7.5311	36.9305	70.9113	43.1800	-44	54	239	100848	0.40 
869.425	-1.2939	0.0215	1.6514	22.9492	-25.9399	32.0435	-4.1254	37.0239	73.0701	43.1900	-38	51	229	100849	0.40 
869.534	-1.2964	0.0796	1.5049	19.8364	-9.0942	46.0205	0.5109	35.9418	76.5637	43.1700	-37	47	216	100848	0.40 
869.628	-1.3340	0.0269	1.6909	11.3525	8.4229	24.1699	4.9219	36.4856	81.1230	43.1900	-25	41	210	100848	0.40 
869.737	-1.1865	0.1528	1.8389	-2.3804	20.6909	21.0571	6.7896	37.3920	83.4906	43.2000	-20	39	205	100848	0.40 
869.847	-1.3208	0.1514	2.0186	-18.1274	-3.9673	-17.3340	6.2567	37.7875	84.0179	43.2100	-14	37	203	100847	0.40 
869.956	-1.3662	-0.1694	1.6650	-19.1040	-9.0942	-38.8184	3.0652	36.5955	81.3757	43.1900	-17	36	208	100847	0.40 
870.050	-1.2510	-0.0732	1.5693	-29.1138	-14.5874	0.1831	-0.6042	35.8044	78.9038	43.2000	-27	41	210	100847	0.40 
870.159	-1.3071	-0.1504	1.5879	-22.1558	-14.2822	-20.4468	-3.8892	34.4861	76.6626	43.1700	-33	47	212	100847	0.40 
870.253	-1.2339	-0.1533	1.8198	-4.0894	-12.8784	-24.7192	-6.7291	33.0908	72.3889	43.2000	-42	51	215	100846	0.40 
870.378	-1.1841	-0.2007	1.8320	2.1362	-31.1890	-16.9678	-7.5146	30.9705	69.4611	43.1900	-54	50	216	100846	0.40 
870.457	-1.1245	-0.3096	1.8545	13.9771	-16.0522	-47.8516	-7.5696	27.3120	65.1489	43.2000	-67	49	217	100846	0.40 
870.581	-0.9663	-0.0464	1.6675	11.1084	-18.6157	-14.5264	-7.5806	24.9774	60.5402	43.2200	-84	45	215	100845	0.40 
870.690	-1.1519	-0.0034	1.8618	0.7935	-1.2207	-14.8315	-7.6410	24.3402	56.9971	43.2100	-94	38	209	100845	0.40 
870.753	-1.1519	-0.1040	1.8809	-0.6104	0.6104	-0.9766	-7.8113	24.7137	54.5966	43.2000	-102	41	210	100845	0.40 
870.878	-1.1484	-0.0679	1.8623	3.6011	9.3994	-14.5874	-7.7563	25.3894	51.5314	43.2300	-99	38	213	100844	0.40 
870.972	-1.1631	-0.0942	1.8867	1.2817	3.4180	-0.5493	-7.5586	26.3232	49.4385	43.2200	-103	37	209	100844	0.40 
871.082	-1.0796	-0.0366	1.8584	-0.9155	-2.2583	23.2544	-6.6028	26.6309	49.0540	43.2000	-101	37	211	100845	0.40 
871.190	-1.1392	-0.1348	1.8721	-1.8311	0.6104	15.6860	-5.5920	27.0483	49.7461	43.2200	-99	39	210	100844	0.40 
871.269	-1.1069	-0.0947	1.8682	0.6714	-4.3335	5.6152	-4.9658	27.1252	49.2902	43.2200	-95	39	211	100844	0.40 
871.394	-1.0928	-0.1064	1.8696	-0.0610	-6.2256	-0.1221	-4.6143	26.7407	48.1915	43.2100	-96	40	207	100845	0.40 
871.472	-1.1030	-0.1113	1.8657	-0.9155	1.0376	-0.4883	-4.6472	26.7133	46.6974	43.2100	-92	40	213	100845	0.40 
871.597	-1.1030	-0.1113	1.8691	0.6104	-1.7700	-4.7607	-4.5978	26.9220	45.4230	43.2000	-94	42	215	100844	0.40 
871.691	-1.1113	-0.0732	1.8726	0.1831	-0.4272	-5.6763	-4.7351	27.0264	43.6981	43.2000	-94	42	212	100844	0.40 
871.800	-1.1001	-0.0811	1.8687	-0.0610	-0.2441	-2.3193	-4.7681	27.1637	42.1765	43.2100	-98	37	209	100845	0.40 
871.956	-1.1021	-0.0918	1.8672	-0.7324	0.0610	1.2817	-4.6088	27.3615	41.1328	43.2200	-97	39	209	100844	0.40 
872.003	-1.1035	-0.0933	1.8647	-0.7324	-0.6104	-0.5493	-4.5428	27.5922	40.1880	43.1900	-95	41	209	100844	0.40 
872.144	-1.0728	-0.0928	1.8613	-1.5869	1.3428	-0.0610	-4.5703	27.7405	39.1498	43.2100	-94	40	209	100844	0.40 
872.206	-1.1001	-0.1079	1.8647	-1.4038	0.6714	-2.1973	-4.7076	28.0371	38.0402	43.2100	-98	39	211	100844	0.40 
872.316	-1.1079	-0.0894	1.8584	-0.4272	-2.7466	-7.0801	-4.9768	28.0371	36.4801	43.2000	-101	37	210	100844	0.40 
872.425	-1.1055	-0.0928	1.8584	-1.7090	-1.6479	-0.6104	-5.1361	27.9327	35.0848	43.2000	-103	37	208	100844	0.40 
872.503	-1.1001	-0.1006	1.8564	-1.4038	0.7935	2.3193	-5.0702	28.1140	34.3378	43.2000	-103	38	213	100844	0.40 
872.659	-1.1025	-0.1123	1.8716	-1.0376	2.8076	3.4790	-4.9329	28.4161	33.8269	43.2000	-102	40	211	100843	0.40 
872.722