StartTime: 2017-07-14 14:15:41.614
Time(s)	ax(g)	ay(g)	az(g)	wx(deg/s)	wy(deg/s)	wz(deg/s)	AngleX(deg)	AngleY(deg)	AngleZ(deg)	T(°)	hx	hy	hz	Pressure(Pa)	Altitude(m) 
1326.056	-0.1021	-0.1128	0.9922	0.0610	-4.5166	0.3662	-5.1141	8.1134	80.1947	43.3400	188	42	-94	100547	0.65 
1326.134	-0.1230	-0.1143	0.9937	2.2583	-0.1831	-0.3662	-5.0647	8.0640	80.0958	43.3400	189	40	-92	100547	0.65 
1326.259	-0.1128	-0.0806	1.0093	1.4038	1.9531	-0.4272	-4.9384	8.2617	79.8981	43.3500	187	42	-95	100547	0.65 
1326.368	-0.1289	-0.1050	1.0107	-1.2207	6.1646	7.3242	-4.8615	8.6353	80.0684	43.3400	190	47	-96	100547	0.65 
1326.462	-0.1304	-0.0786	0.9541	-0.7324	9.4604	8.4229	-4.8065	9.3109	80.6671	43.3500	188	42	-94	100547	0.65 
1326.556	-0.2319	-0.0278	0.9805	-13.4277	43.3350	21.4844	-5.3558	11.6840	81.7767	43.3400	194	37	-89	100547	0.65 
1326.696	-0.0786	-0.2188	1.0376	2.6855	11.7188	-0.8545	-5.7678	13.6890	83.2379	43.3700	204	34	-79	100547	0.65 
1326.775	-0.1299	-0.0444	1.0063	15.0146	18.9819	-5.5542	-4.9823	15.0897	82.7106	43.3500	205	33	-72	100548	0.65 
1326.868	-0.0547	-0.0654	0.9873	4.6997	8.5449	-6.6528	-3.7079	15.7324	82.4304	43.3500	211	30	-69	100548	0.65 
1326.947	-0.1743	-0.0107	1.1245	4.8828	6.0425	-11.3525	-3.7244	15.6610	80.8704	43.3600	213	33	-64	100548	0.65 
1327.103	-0.2295	-0.0679	1.1836	2.7466	11.4746	3.9673	-2.7631	16.1774	80.6561	43.3800	211	36	-64	100549	0.65 
1327.181	-0.3569	-0.1431	0.8472	0.4272	-4.2725	20.3247	-1.8567	17.1167	82.2052	43.3700	219	34	-63	100549	0.65 
1327.259	-0.4033	-0.1582	0.7671	-1.5259	-4.1504	-13.9771	-2.2797	17.7594	82.1393	43.3600	218	28	-65	100549	0.65 
1327.384	-0.3208	0.0801	0.8779	-12.2070	-11.6577	4.0283	-3.0817	17.4847	80.5408	43.3500	218	36	-67	100549	0.65 
1327.540	-0.1768	-0.1582	0.8970	-17.2119	-18.0664	23.3154	-4.4110	16.2872	82.3151	43.3500	218	34	-67	100549	0.65 
1327.587	-0.0635	-0.1104	0.9150	-2.0752	-3.1128	28.1372	-4.7076	14.3921	84.9738	43.3400	216	29	-72	100549	0.65 
1327.681	-0.1187	-0.1270	1.4102	-12.7563	-16.4185	7.1411	-5.3998	13.7274	86.9733	43.3500	217	23	-72	100550	0.65 
1327.775	-0.5249	0.0103	0.6743	-21.3623	3.0518	6.0425	-7.1301	13.7549	87.3688	43.3300	216	24	-75	100549	0.65 
1327.900	-0.3770	-0.1582	0.9355	6.5918	-14.6484	14.4043	-7.7838	15.0348	87.4951	43.3300	219	27	-73	100549	0.65 
1327.993	-0.1606	-0.1768	0.7817	25.0854	7.7515	-12.9395	-6.3007	14.5074	87.9346	43.3300	221	20	-74	100549	0.65 
1328.103	-0.1333	0.0815	0.8691	10.1929	-2.0752	-4.5166	-4.1638	14.4305	85.7813	43.3400	221	24	-76	100550	0.65 
1328.197	-0.1787	-0.0293	1.3203	0.0610	18.7378	-28.3203	-3.9111	13.7439	84.5782	43.3400	218	22	-80	100550	0.65 
1328.306	-0.7773	-0.0518	1.0400	18.0664	-2.3804	15.9302	-2.9663	14.0680	83.9246	43.3600	223	25	-77	100550	0.65 
1328.400	-0.5698	-0.1089	1.1123	11.2915	8.4839	-20.3247	-1.2909	15.1721	84.2596	43.3600	222	24	-79	100550	0.65 
1328.509	-0.2402	0.1279	0.7705	-27.4658	-18.8599	17.3950	-1.8347	14.4196	83.6938	43.3400	217	22	-80	100550	0.65 
1328.587	-0.1372	-0.2559	0.8887	-20.8740	-2.1973	43.8232	-3.4772	14.4196	87.5281	43.3500	219	19	-82	100550	0.65 
1328.712	-0.0347	-0.0532	0.8906	1.5869	-3.1738	13.1226	-3.7848	13.4418	89.9341	43.3500	223	11	-82	100550	0.65 
1328.807	-0.0986	0.0259	1.4204	-9.8877	-8.4229	-0.2441	-4.3231	13.7439	90.5054	43.3700	225	8	-78	100549	0.65 
1328.915	-0.4097	0.0610	0.7637	-24.0479	4.8218	-1.5259	-6.2622	14.2493	90.1428	43.3500	225	10	-83	100549	0.65 
1329.025	-0.1499	-0.2334	0.7979	18.6768	-13.0615	-2.8076	-6.6138	14.9744	90.1758	43.3400	232	11	-80	100549	0.65 
1329.119	-0.1284	-0.0156	0.7881	28.5645	7.5684	-36.2549	-4.8450	14.5789	88.6432	43.3400	229	8	-87	100549	0.65 
1329.244	-0.0210	0.1021	0.8823	3.2959	-9.7656	-9.9487	-2.9663	13.5516	86.0394	43.3500	233	13	-85	100549	0.65 
1329.322	-0.2461	0.2329	1.5493	11.3525	1.2817	-13.9160	-3.2904	13.6230	83.5620	43.3500	233	19	-83	100550	0.65 
1329.415	-0.6025	-0.0967	0.7637	32.9590	-23.8647	19.2871	-1.2030	14.1064	84.6826	43.3400	234	19	-83	100550	0.65 
1329.527	-0.5127	-0.0249	1.0698	-0.1221	-7.3853	-23.8647	-0.7086	14.9854	84.5343	43.3300	236	14	-90	100550	0.65 
1329.621	-0.2856	0.0410	0.7817	-24.7192	-1.1597	20.3247	-1.9006	14.5844	83.6060	43.3400	237	22	-94	100550	0.65 
1329.730	-0.0039	-0.2295	0.8428	-5.7373	-1.4038	9.5215	-3.5870	14.0790	86.2372	43.3400	238	18	-97	100550	0.65 
1329.855	-0.3574	-0.1987	1.3032	-5.3711	19.8364	24.7192	-3.7024	14.7382	87.7148	43.3400	243	20	-90	100550	0.65 
1329.933	-0.7305	-0.2363	1.0225	-26.8555	-6.7749	12.4512	-4.2297	14.4031	89.6924	43.3200	247	16	-89	100550	0.65 
1330.058	-0.6006	-0.0815	1.1807	-14.5874	12.7563	12.6953	-6.5424	16.5948	90.2142	43.3200	251	14	-84	100550	0.65 
1330.136	-0.1938	-0.1367	0.8394	23.8647	4.8828	-13.3667	-5.8997	16.4301	90.4669	43.3200	253	11	-84	100550	0.65 
1330.246	-0.1689	0.1748	0.8306	21.1792	1.3428	-24.4141	-3.7958	16.6553	87.1930	43.2900	249	21	-83	100550	0.65 
1330.355	-0.0396	-0.1284	0.9546	-0.9155	-4.3335	-34.9121	-3.2684	14.7162	85.0946	43.3000	249	29	-85	100550	0.65 
1330.434	-0.2515	-0.0752	1.2646	5.9204	6.8359	-15.5640	-3.1476	14.1339	82.3920	43.3300	245	38	-86	100550	0.65 
1330.574	-0.3442	-0.1846	0.7549	16.9067	3.1738	9.5825	-1.0657	15.3204	83.2324	43.3200	247	39	-92	100550	0.65 
1330.652	-0.3047	0.1094	0.8921	-20.0195	-17.0288	5.2490	-1.3898	15.9192	82.6392	43.3100	249	42	-93	100550	0.65 
1330.761	-0.2139	-0.1172	0.8057	-27.3438	-2.8687	34.4849	-3.2574	15.2216	84.3091	43.3200	244	46	-92	100550	0.65 
1330.855	-0.0039	-0.1348	0.8960	-1.0376	-3.9673	3.2349	-4.5593	14.2932	86.3196	43.3100	243	43	-91	100549	0.65 
1330.980	-0.2119	-0.2368	1.5161	-9.7046	0.3052	-9.3384	-5.3119	14.4360	86.4294	43.3200	241	41	-87	100549	0.65 
1331.074	-0.6050	0.0034	0.7188	-27.3438	-0.2441	6.1035	-7.3389	14.1284	86.6437	43.3200	239	48	-89	100549	0.65 
1331.168	-0.4585	-0.2266	1.1025	8.7891	-7.5073	12.5122	-8.5913	15.6830	87.0282	43.3000	240	52	-85	100549	0.65 
1331.246	-0.1294	-0.1748	0.7070	33.5693	8.9722	-12.9395	-6.4270	15.1776	87.0172	43.3000	237	49	-88	100549	0.65 
1331.371	-0.1548	0.2017	0.9121	17.7002	-2.6245	-15.6860	-3.8562	15.6006	83.7213	43.3000	234	50	-85	100549	0.65 
1331.450	-0.1367	-0.0518	1.2148	3.9673	21.4233	-34.4238	-3.2684	14.5349	82.1558	43.3100	228	55	-89	100549	0.65 
1331.574	-0.5293	-0.1406	1.2222	10.0098	18.3105	-0.7324	-2.4609	14.7876	80.5737	43.3000	218	59	-88	100549	0.65 
1331.668	-0.4448	-0.2773	0.9834	19.4092	3.2349	-17.9443	-0.0220	15.7819	81.0132	43.3100	215	56	-91	100549	0.65 
1331.793	-0.1768	0.1313	0.7397	-23.3765	-25.0244	-3.4180	-0.4230	14.9634	78.6456	43.3200	208	62	-95	100549	0.65 
1331.872	-0.2212	-0.2104	0.9946	-26.7334	-6.4087	25.3906	-2.8674	14.3756	79.4202	43.3100	201	65	-97	100549	0.65 
1331.980	0.0112	-0.0332	0.9473	-4.3945	4.6997	18.2495	-4.2572	12.2003	80.9528	43.3200	198	56	-96	100549	0.65 
1332.105	-0.0552	-0.1602	1.4346	-9.6436	-4.3335	-10.8643	-5.0702	12.0300	81.6504	43.3300	190	54	-94	100549	0.65 
1332.183	-0.5679	0.0273	0.6753	-24.8413	-8.2397	-4.2725	-6.7621	12.1674	81.8811	43.3200	189	52	-92	100549	0.65 
1332.262	-0.3330	-0.2729	1.1025	8.6060	-6.8970	13.6108	-8.0090	13.6890	82.9797	43.3200	187	52	-86	100549	0.65 
1332.387	-0.1738	-0.1377	0.6914	30.3955	14.0991	-17.8833	-6.4709	13.6560	83.3258	43.3300	189	42	-88	100550	0.65 
1332.496	-0.0928	0.1416	0.9170	9.9487	0.9766	0.0000	-4.0320	14.3976	81.1780	43.3200	185	40	-84	100550	0.65 
1332.590	-0.2427	-0.1460	1.2295	3.2959	16.2964	-40.5884	-4.2957	13.9087	79.9640	43.3400	180	36	-83	100550	0.65 
1332.715	-0.6543	-0.0576	1.1934	22.0947	7.2632	0.0610	-3.0872	13.9636	78.0743	43.3300	176	32	-78	100550	0.65 
1332.793	-0.5303	-0.1538	1.0391	20.8130	18.2495	-16.4185	-0.6757	15.3040	77.7502	43.3400	175	29	-81	100550	0.65 
1332.918	-0.1924	0.1802	0.6724	-28.1372	-14.0991	-2.6245	-1.2360	15.1611	76.2012	43.3500	171	25	-79	100550	0.65 
1332.996	-0.1577	-0.3384	0.9722	-25.3296	-3.7231	35.8276	-3.5376	15.0732	78.6841	43.3300	172	23	-78	100550	0.65 
1333.105	-0.0308	0.0029	0.9214	-3.7842	-0.6714	-5.3711	-4.9384	13.3704	79.7498	43.3200	173	22	-79	100550	0.65 
1333.199	-0.1353	-0.0205	1.3906	-13.4277	-20.3857	4.5166	-6.0205	12.7881	80.5627	43.3400	173	18	-80	100550	0.65 
1333.309	-0.4121	0.0986	0.7964	-26.4893	-3.8452	20.0806	-8.0859	11.8927	81.4417	43.3400	172	15	-83	100550	0.65 
1333.403	-0.1963	-0.1812	0.8701	15.3809	-15.8691	27.9541	-8.0090	12.0575	83.8586	43.3500	171	13	-84	100550	0.65 
1333.497	-0.1768	-0.0825	0.8159	24.5972	21.0571	-0.7324	-5.6195	12.6563	86.1218	43.3200	174	2	-81	100550	0.65 
1333.621	-0.0356	-0.0420	0.9067	8.4839	3.2349	-3.2349	-3.5980	13.2715	85.8691	43.3400	178	-4	-80	100550	0.65 
1333.700	-0.2700	0.1982	1.3638	8.1177	12.5122	-23.8037	-3.4662	13.0133	83.8751	43.3400	179	-4	-78	100550	0.65 
1333.824	-0.8481	-0.1611	1.0825	14.2822	14.0381	14.7705	-2.2742	13.7933	84.6936	43.3300	183	-6	-76	100550	0.65 
1333.918	-0.5493	-0.0479	1.1221	8.9722	6.9580	-13.0615	-1.1591	15.1501	85.1001	43.3300	188	-10	-71	100550	0.65 
1334.027	-0.1909	0.0220	0.6982	-23.9868	-9.2773	-4.3945	-2.3785	14.1064	84.6991	43.3500	190	-4	-72	100550	0.65 
1334.121	-0.0972	-0.1860	0.8398	-12.3901	-9.2773	22.2778	-4.3451	13.5736	86.5668	43.2900	188	-7	-74	100550	0.65 
1334.246	0.0781	-0.0308	0.9297	-2.3804	-1.0376	15.8081	-4.3066	11.4313	88.4454	43.3300	194	-9	-79	100550	0.65 
1334.356	-0.3853	-0.1055	1.4766	-23.0713	8.8501	20.9351	-5.1031	11.8652	89.6814	43.3200	195	-10	-76	100550	0.65 
1334.434	-0.3979	0.0488	1.1309	-37.5977	26.9775	14.4043	-7.6904	13.1781	90.8899	43.3200	196	-11	-75	100550	0.65 
1334.543	-0.0356	-0.2456	0.6172	16.4795	-5.8594	21.8506	-7.5421	12.9913	93.5651	43.3200	200	-12	-73	100550	0.65 
1334.637	-0.1724	0.1577	0.9033	23.7427	4.3945	-22.3389	-5.5371	13.4747	93.3344	43.3100	199	-12	-74	100550	0.65 
1334.747	0.0396	-0.2046	0.9448	7.0801	6.8359	-29.7852	-3.7848	12.7826	92.2247	43.3300	206	-11	-71	100550	0.65 
1334.856	-0.0791	0.0815	1.2764	15.3198	-1.6479	-10.0708	-3.1256	13.4473	88.9014	43.3300	208	-6	-66	100550	0.65 
1334.934	-0.3154	-0.3105	0.6680	34.5459	-11.3525	8.2397	-0.6866	15.1776	89.6869	43.3100	211	-2	-64	100550	0.65 
1335.059	-0.3228	0.3057	0.8540	-13.7939	-18.6157	-10.1929	-0.4614	15.1392	87.4896	43.3200	212	4	-64	100550	0.65 
1335.137	-0.1890	-0.1943	0.8452	-33.6914	3.6011	50.9033	-2.1478	14.6448	89.7528	43.3300	211	5	-69	100550	0.65 
1335.262	-0.0337	-0.1709	0.9063	3.5400	4.8828	0.5493	-3.8452	14.9084	92.7356	43.3300	216	1	-67	100549	0.65 
1335.341	-0.3130	-0.1919	1.4570	-5.9204	4.2114	-2.1362	-4.0540	15.3699	92.9059	43.3300	216	-1	-63	100550	0.65 
1335.474	-0.6919	-0.1797	0.7437	-22.2778	1.7090	-5.0659	-5.5206	14.5953	93.8068	43.3300	218	1	-65	100550	0.65 
1335.553	-0.5327	-0.1377	1.1758	-0.2441	-2.0142	2.3804	-6.9873	16.6113	93.7354	43.3200	217	6	-62	100549	0.65 
1335.677	-0.1851	-0.1875	0.7422	19.0430	3.4790	-6.9580	-5.8777	16.1444	93.9990	43.3200	217	4	-62	100549	0.65 
1335.756	-0.1187	0.1064	0.8945	14.1602	-5.4321	-5.7983	-3.8342	16.0510	91.8567	43.3000	216	9	-62	100550	0.65 
1335.896	-0.2065	-0.0195	1.2031	5.7373	11.7188	-42.5415	-3.7134	14.6667	90.0220	43.3000	216	16	-67	100550	0.65 
1335.990	-0.6367	-0.1387	1.3330	13.1836	19.1650	3.4180	-2.4554	14.6063	89.2035	43.2800	214	21	-69	100550	0.65 
1336.068	-0.4380	-0.2847	0.9116	14.5874	13.3667	-18.7988	-0.6482	15.3040	90.0824	43.3100	212	20	-69	100550	0.65 
1336.193	-0.2144	0.0757	0.7383	-20.6299	-16.9067	1.2207	-1.0876	15.3809	88.5114	43.3000	211	25	-70	100550	0.65 
1336.272	-0.1084	-0.2393	0.8550	-15.6250	9.7046	9.3384	-3.2794	15.3973	89.1541	43.3000	212	23	-68	100550	0.65 
1336.400	0.0249	-0.0371	0.8735	1.3428	-14.8926	-0.9766	-4.0320	14.6063	88.9728	43.3200	214	25	-70	100550	0.65 
1336.525	-0.0132	0.0093	1.4219	-13.3057	-8.7891	2.1362	-4.9329	14.4745	88.7476	43.3200	215	25	-64	100550	0.65 
1336.588	-0.4604	0.0200	0.6841	-25.0244	-7.4463	2.7466	-6.8939	14.3591	88.3411	43.3200	213	34	-66	100550	0.65 
1336.697	-0.2891	-0.1353	0.9360	12.1460	-0.7935	3.8452	-7.7673	15.5676	87.5391	43.3100	214	36	-67	100550	0.65 
1336.791	-0.1807	-0.2192	0.8179	33.8135	17.2729	-25.9399	-5.8447	15.7709	87.8137	43.3100	220	34	-65	100550	0.65 
1336.916	-0.1060	0.1265	0.9067	18.6157	-13.0005	-26.9165	-3.6365	15.4028	83.7213	43.3100	213	36	-67	100550	0.65 
1337.041	-0.3091	0.0293	1.3188	1.0376	6.8359	-48.9502	-4.3176	14.5184	79.7443	43.3200	210	48	-69	100550	0.65 
1337.088	-0.7637	-0.1821	1.0107	23.4375	-4.1504	1.3428	-3.2684	14.3701	78.3765	43.3100	210	56	-68	100550	0.65 
1337.209	-0.6421	-0.0337	1.1455	6.7139	1.8311	-14.2822	-1.2140	15.0183	77.6294	43.3300	208	57	-79	100550	0.65 
1337.318	-0.1533	-0.0171	0.7598	-27.7710	-25.3906	11.4746	-2.4170	12.9199	77.6294	43.3000	206	60	-85	100550	0.65 
1337.397	-0.1558	-0.1558	0.8652	-9.6436	-14.8315	38.5132	-4.2627	11.2665	80.4694	43.3100	203	58	-88	100550	0.65 
1337.521	0.0254	-0.0029	0.9766	-2.0752	-18.4326	41.1377	-3.9606	8.7177	84.0015	43.3300	201	52	-94	100550	0.65 
1337.600	-0.3931	0.0059	1.4697	-25.3296	1.5259	29.8462	-5.0208	8.1793	86.5338	43.3100	205	43	-97	100549	0.65 
1337.724	-0.4111	0.1538	1.0796	-30.4565	19.8364	39.4897	-7.1356	9.1626	88.0334	43.3200	208	46	-96	100549	0.65 
1337.834	-0.2285	-0.1479	0.8867	14.8315	5.9204	1.4648	-7.5037	10.5359	89.1595	43.3200	214	41	-95	100549	0.65 
1337.912	-0.3599	-0.0493	1.0054	18.1885	14.8315	-9.6436	-5.6909	12.7771	88.2751	43.3200	214	38	-90	100549	0.65 
1338.022	-0.2896	-0.0791	0.9736	13.8550	-5.0659	-41.2598	-4.7736	12.9584	85.3528	43.3300	215	39	-91	100549	0.65 
1338.131	-0.2407	0.0010	0.9932	11.8408	-3.3569	-36.9873	-4.0649	12.3157	80.8539	43.3300	207	48	-93	100549	0.65 
1338.209	-0.2949	-0.0166	0.9526	9.5825	-5.1880	-8.3618	-3.2794	12.4310	78.3051	43.3200	208	54	-94	100548	0.65 
1338.334	-0.2163	-0.0508	0.9570	0.7324	-2.2583	-6.8970	-2.7850	12.2278	77.5964	43.3400	208	57	-95	100548	0.65 
1338.412	-0.2188	-0.1211	0.9751	-3.2959	3.5400	-11.3525	-3.1311	11.9751	76.8658	43.3500	201	57	-97	100548	0.65 
1338.537	-0.1875	-0.1113	0.9854	0.9766	8.1787	-6.7749	-3.5046	12.7496	75.6299	43.3300	205	62	-96	100548	0.65 
1338.631	-0.2144	-0.0498	1.0132	2.2583	4.9438	-13.4277	-3.7189	13.3319	74.2346	43.3600	204	68	-96	100548	0.65 
1338.740