StartTime: 2017-07-14 14:15:41.614
Time(s)	ax(g)	ay(g)	az(g)	wx(deg/s)	wy(deg/s)	wz(deg/s)	AngleX(deg)	AngleY(deg)	AngleZ(deg)	T(°)	hx	hy	hz	Pressure(Pa)	Altitude(m) 
740.601	-0.2026	-0.0469	0.9595	-2.0752	0.9155	6.2866	-4.2407	12.0245	165.9100	45.8100	82	-166	-157	100532	0.66 
740.726	-0.1826	-0.0967	1.0234	-4.0283	7.0801	10.2539	-4.4440	12.6233	166.5198	45.7800	79	-164	-154	100532	0.66 
740.804	-0.2344	-0.0942	1.0391	3.6621	-2.0142	12.0239	-4.3945	13.0188	167.3492	45.8000	79	-164	-154	100532	0.66 
740.913	-0.2100	-0.0791	1.0015	-2.6245	4.0283	-7.9346	-4.3451	12.8430	167.3767	45.7800	77	-166	-156	100532	0.66 
741.007	-0.2148	-0.0781	0.9854	-0.8545	3.1738	-0.1221	-4.4385	13.0627	166.9043	45.7800	80	-168	-152	100532	0.66 
741.163	-0.2402	-0.0728	0.9399	-2.0752	11.5967	6.3477	-4.5209	13.7823	167.0142	45.7900	78	-166	-153	100532	0.66 
741.210	-0.2622	-0.0684	1.1113	-7.6294	10.7422	16.3574	-4.8615	15.1062	167.9095	45.8000	78	-166	-155	100533	0.66 
741.320	-0.1875	-0.0205	1.0166	15.8691	-3.5400	-3.1128	-4.4714	14.4910	168.0634	45.8000	78	-166	-156	100533	0.66 
741.413	-0.1328	0.0835	0.8267	-2.4414	-4.6997	16.3574	-2.7026	13.9581	168.9093	45.8100	78	-171	-151	100533	0.66 
741.554	-0.0176	-0.0771	0.9121	-9.6436	-17.9443	-5.7373	-3.4882	12.6288	169.0082	45.8200	66	-172	-154	100533	0.66 
741.632	-0.1177	0.1528	0.8638	-1.1597	-2.6855	-19.7754	-4.0759	11.2390	166.5692	45.8000	62	-170	-156	100534	0.66 
741.710	-0.7524	-0.2407	1.3027	9.5215	-16.3574	0.8545	-4.0430	12.5574	165.6958	45.8100	67	-166	-157	100534	0.66 
741.820	-0.5640	0.0273	1.2217	-5.1270	1.4648	6.5308	-4.5703	13.2660	165.0146	45.8000	68	-165	-159	100534	0.66 
741.929	-0.3550	-0.1450	1.1392	-3.2349	30.5176	-13.6719	-6.2402	13.4198	163.9545	45.7900	70	-165	-157	100534	0.66 
742.007	0.0430	-0.0879	0.7251	-2.8687	-19.1040	24.2920	-5.9711	12.4146	164.7675	45.7900	69	-161	-156	100534	0.66 
742.132	-0.2739	-0.2061	0.9551	3.4180	5.8594	15.0146	-6.2952	11.7444	166.5088	45.8100	58	-165	-160	100534	0.66 
742.242	-0.6963	-0.2031	1.4409	-27.8931	10.8032	-1.1597	-7.0917	11.7554	167.3987	45.7900	55	-167	-157	100534	0.66 
742.320	-0.4590	0.2349	1.6797	0.6714	39.5508	19.1040	-6.2897	11.9696	168.8928	45.7900	46	-167	-166	100534	0.66 
742.445	-0.0049	0.0903	0.7637	-2.1362	3.4180	41.3818	-4.6198	10.9808	171.3318	45.7900	34	-170	-159	100534	0.66 
742.539	-0.0352	-0.0381	0.7227	-1.2817	-3.9063	-15.9302	-5.2240	11.7444	172.3096	45.8000	30	-172	-154	100535	0.66 
742.633	-0.0601	0.0547	0.8423	-4.0283	-9.6436	-26.4893	-5.2130	9.8163	169.8486	45.8100	28	-172	-158	100535	0.66 
742.742	-0.6260	-0.2778	1.2144	8.5449	34.3018	-17.8833	-5.3778	9.4977	169.2004	45.8100	32	-172	-155	100535	0.66 
742.821	-0.3872	-0.1655	1.4448	5.0049	-7.0801	-3.7231	-4.6088	10.3326	170.4419	45.8000	32	-172	-149	100535	0.66 
742.947	-0.2764	-0.1416	1.0020	-15.8691	11.8408	-3.9673	-5.7568	9.3988	169.7882	45.8100	28	-172	-151	100536	0.66 
743.025	-0.1064	-0.0791	0.8638	-2.6855	-6.0425	18.3716	-6.6357	10.0305	170.8209	45.8000	31	-169	-155	100536	0.66 
743.150	0.0532	-0.2466	0.6934	4.2114	9.7656	2.3193	-6.8335	8.2562	172.4854	45.8100	24	-169	-155	100536	0.66 
743.244	-0.4907	0.1104	0.9692	-1.5869	30.1514	2.0752	-7.1851	10.7501	171.5570	45.8000	26	-169	-152	100537	0.66 
743.337	-0.0566	0.0034	1.4673	4.0283	16.8457	17.3340	-7.4762	11.9806	173.3533	45.8200	29	-169	-151	100537	0.66 
743.462	0.0801	0.0723	0.6890	12.3291	-2.1362	14.5264	-5.9711	10.0909	173.7103	45.8000	28	-170	-149	100537	0.66 
743.572	-0.0195	0.0166	0.7148	-1.0986	-17.1509	-15.1367	-5.8118	10.9369	173.5071	45.8000	32	-173	-146	100537	0.66 
743.666	-0.1372	0.0527	0.8511	2.3804	-3.1128	-23.5596	-5.9985	8.7891	170.8484	45.8100	33	-173	-143	100538	0.66 
743.775	-0.7402	-0.3989	1.1406	9.8877	45.1050	-41.3208	-5.9656	9.4427	169.2883	45.8000	38	-171	-142	100538	0.66 
743.853	-0.3604	-0.3423	1.4048	-19.6533	8.1177	30.3345	-5.1965	10.3931	173.2159	45.8000	41	-172	-137	100539	0.66 
743.994	-0.2393	-0.2676	1.0962	-2.0752	34.4849	-10.0708	-6.9983	9.7778	174.9188	45.8200	30	-171	-140	100540	0.66 
744.072	-0.0083	-0.0488	0.8062	0.4272	-12.9395	8.5449	-6.5918	10.3436	175.4626	45.7900	31	-175	-138	100539	0.66 
744.181	0.0059	-0.1670	0.7246	6.1035	-7.9956	5.8594	-6.7126	8.3221	176.2646	45.8100	26	-173	-139	100540	0.66 
744.291	-0.7285	-0.0015	1.3013	-31.7383	46.2036	3.4790	-6.6962	8.8879	176.8524	45.8000	29	-170	-137	100540	0.65 
744.384	-0.7139	-0.2983	1.9248	-9.2773	24.1699	-11.6577	-7.5092	10.8820	177.2974	45.8000	32	-165	-139	100541	0.65 
744.478	-0.1191	-0.0322	0.7578	12.5122	17.9443	-6.4087	-5.0372	8.6847	176.3306	45.8100	31	-171	-132	100541	0.65 
744.588	0.0024	0.0269	0.6978	-6.4697	1.3428	-31.3110	-4.9823	9.6405	173.6060	45.7900	40	-173	-125	100541	0.65 
744.682	-0.0684	0.1177	0.7832	1.7090	-4.7607	-17.7612	-5.3778	8.3496	169.9860	45.7700	54	-172	-126	100542	0.65 
744.806	-0.9092	-0.5083	1.4951	19.0430	62.9272	-15.5029	-5.2460	9.9536	169.0631	45.8100	61	-167	-124	100542	0.65 
744.916	-0.1958	-0.4019	1.5425	-19.2871	13.2446	19.3481	-4.7571	10.0031	171.8317	45.7800	61	-173	-122	100542	0.65 
744.994	0.1709	-0.3203	0.5654	-23.0713	0.0000	6.4087	-6.8390	6.8829	175.0616	45.7800	47	-169	-130	100543	0.65 
745.103	0.0801	-0.0923	0.6743	5.8594	-23.1323	23.5596	-7.4158	7.8662	175.8691	45.7800	41	-165	-133	100543	0.65 
745.213	-0.0313	-0.2192	0.8301	0.7935	5.4321	-7.4463	-7.4432	5.8447	176.2592	45.8000	32	-168	-129	100543	0.65 
745.306	-0.8257	0.0112	1.3857	-39.3677	54.8706	7.5073	-8.0145	7.8662	175.5835	45.7800	35	-167	-130	100543	0.65 
745.401	-0.8433	-0.5596	1.9829	-12.0850	16.6016	-4.0283	-8.5089	10.3162	177.4457	45.8000	37	-165	-128	100544	0.65 
745.494	-0.0967	-0.0078	0.6865	21.0571	-1.0376	13.3057	-6.1743	8.4430	176.9128	45.7900	34	-164	-124	100544	0.65 
745.650	-0.0322	0.0059	0.7080	-3.4180	-2.5024	-24.3530	-5.3229	9.5197	175.7758	45.7700	35	-170	-118	100544	0.65 
745.713	-0.0630	-0.0215	0.7554	1.2207	5.9814	-34.2407	-5.7898	7.3444	171.7548	45.7700	44	-167	-117	100544	0.65 
745.806	-0.7983	-0.3315	1.4556	13.3667	50.8423	-20.0806	-5.7019	9.5746	169.1730	45.7600	58	-164	-116	100544	0.65 
745.931	-0.3701	-0.3945	1.7100	-13.1836	22.0337	5.2490	-4.9164	9.9152	170.7990	45.7600	63	-168	-111	100545	0.65 
746.010	0.0635	-0.2476	0.7012	-23.6206	1.3428	-3.6621	-6.8225	8.6023	171.3153	45.7600	58	-160	-115	100546	0.65 
746.120	-0.0205	-0.1528	0.7856	13.4888	-21.5454	16.7847	-7.3883	10.0470	171.6284	45.7500	56	-161	-119	100546	0.65 
746.228	0.0244	-0.1504	0.7974	2.8076	-3.8452	7.8125	-6.7456	7.7014	172.2272	45.7500	52	-159	-113	100546	0.65 
746.307	-0.7129	-0.0200	1.5322	-38.8794	42.8467	26.9775	-6.9104	8.4320	173.5016	45.7600	46	-163	-113	100547	0.65 
746.432	-0.5049	-0.3525	1.7622	-3.8452	17.2119	-4.1504	-7.6465	9.0198	175.5560	45.7600	40	-161	-111	100547	0.65 
746.526	-0.1240	0.0806	0.9014	11.1084	-5.6152	7.3853	-5.7898	7.9321	174.7156	45.7500	36	-163	-109	100548	0.65 
746.666	-0.1636	-0.0171	0.7705	-4.4556	28.9917	-13.7939	-5.1691	9.3988	174.3420	45.7400	38	-166	-102	100548	0.65 
746.728	0.0083	0.0059	0.7676	0.4883	-4.2114	-33.8135	-5.6305	8.4045	171.6284	45.7500	47	-164	-104	100549	0.65 
746.853	-0.6328	-0.1206	1.2036	14.9536	18.3105	-8.3008	-5.2240	7.6849	169.6179	45.7300	53	-160	-103	100550	0.65 
746.932	-0.5073	-0.1479	1.9683	-5.4321	36.8042	2.0752	-4.5648	9.6515	169.1510	45.7400	61	-161	-93	100550	0.65 
747.057	0.0347	-0.2031	0.7476	-20.8130	17.8223	15.0757	-5.8997	8.5913	171.3977	45.7300	56	-159	-95	100550	0.65 
747.135	-0.2080	-0.0474	0.8193	-0.1221	2.9907	19.9585	-7.0697	11.5466	172.0349	45.7400	52	-160	-95	100551	0.65 
747.244	-0.0161	-0.2324	0.7144	-10.3760	-10.1929	13.2446	-7.2620	9.6130	174.1608	45.7400	48	-155	-96	100551	0.65 
747.354	-0.5391	0.0596	1.1934	-36.5601	46.9971	33.9355	-8.7946	11.0852	175.0781	45.7600	42	-157	-94	100551	0.65 
747.479	-0.5591	-0.1221	1.6079	-0.3052	-30.6396	12.3901	-8.3606	12.7277	176.3306	45.7200	44	-151	-92	100552	0.64 
747.557	-0.0908	-0.0405	0.7285	17.2119	10.8032	16.1133	-6.0205	10.9753	177.1051	45.7200	41	-156	-87	100553	0.64 
747.666	-0.0576	0.0566	0.7217	2.6855	-7.3853	-19.0430	-5.1306	12.6398	176.2592	45.7400	40	-157	-82	100553	0.64 
747.760	-0.1406	0.0166	0.7495	-1.0376	-17.5781	-19.4092	-5.0482	10.4041	173.6499	45.7400	49	-158	-74	100553	0.64 
747.870	-1.2803	-0.0728	1.8403	24.7192	60.7910	1.7700	-4.7845	12.6782	170.8649	45.7300	59	-156	-75	100554	0.64 
747.980	-0.7104	-0.2300	1.7813	-6.6528	-7.6904	7.0190	-4.8010	10.0360	173.0182	45.7300	58	-160	-70	100554	0.64 
748.058	-0.1528	-0.1743	0.6885	-16.0522	1.8921	-0.7935	-6.6962	6.7621	174.6991	45.7100	51	-155	-74	100554	0.64 
748.183	-0.0410	-0.1445	0.7715	2.1973	-11.6577	20.2026	-7.4927	7.2510	175.1331	45.7100	49	-156	-78	100554	0.64 
748.292	-0.0806	-0.2651	0.9653	13.7939	7.5073	-15.0757	-7.2070	6.5808	175.2045	45.7100	46	-156	-78	100554	0.64 
748.371	-1.1831	-0.2319	2.0615	-71.4722	70.2515	-7.2632	-7.5916	8.8824	174.1113	45.7000	53	-155	-71	100555	0.64 
748.480	-0.8042	-0.3896	1.3755	-4.1504	35.7056	22.1558	-8.0640	10.5084	175.0397	45.7100	60	-153	-69	100555	0.64 
748.574	-0.2197	0.1260	0.8970	4.2725	23.3765	30.5786	-5.5371	12.1674	176.3965	45.7100	58	-158	-67	100555	0.64 
748.683	-0.2109	-0.1885	0.8877	2.9297	7.8735	-13.7329	-5.0043	13.6066	176.6382	45.7000	54	-160	-64	100556	0.64 
748.792	-0.4097	0.0239	1.1665	-0.2441	-15.5029	-18.5547	-4.7791	13.5242	173.6060	45.7000	62	-161	-62	100556	0.64 
748.886	-0.4980	-0.0820	1.2197	6.4087	20.3857	-29.2358	-5.2954	12.2607	170.3375	45.7100	69	-156	-65	100556	0.64 
748.981	-0.1729	-0.1099	0.8833	-1.7090	9.1553	-10.9253	-3.9606	11.4478	169.5795	45.6900	73	-157	-61	100556	0.64 
749.105	-0.2539	-0.0537	0.9492	-1.4038	-13.6719	-0.4883	-4.2352	11.4478	168.3435	45.6800	73	-160	-60	100557	0.64 
749.184	-0.2163	-0.1162	0.9795	-1.7700	-4.1504	0.4883	-4.6198	11.4752	168.1073	45.6800	75	-156	-62	100557	0.64 
749.292	-0.2173	-0.0464	0.9922	-2.3193	1.4038	-7.6294	-4.9274	11.3379	166.8713	45.7100	75	-159	-65	100556	0.64 
749.402	-0.2764	-0.0640	1.0093	0.1221	1.4038	1.4648	-5.0537	11.8268	166.2671	45.7100	78	-157	-66	100556	0.64 
749.511	-0.1890	-0.1123	0.9902	1.2207	3.1128	-13.1836	-5.2899	11.7389	165.3168	45.7100	79	-157	-63	100556	0.64 
749.605	-0.2275	-0.0757	1.0054	2.3193	1.1597	-13.6719	-5.3558	11.8927	163.4546	45.7100	84	-158	-61	100556	0.64 
749.714	-0.2070	-0.0742	0.9985	4.0894	3.7842	-2.6245	-5.1306	11.8707	162.1417	45.7100	85	-152	-63	100556	0.64 
749.824	-0.2227	-0.0742	0.9946	0.4883	-2.0142	-9.1553	-5.0317	11.8817	160.9991	45.7200	87	-152	-63	100556	0.64 
749.918	-0.2153	-0.0532	1.0103	-1.5869	-0.6714	1.7700	-5.0317	11.7499	160.2795	45.7400	91	-152	-60	100556	0.64 
750.011	-0.2114	-0.0747	1.0068	-3.8452	-3.6011	9.1553	-5.0922	11.6235	160.5652	45.7200	88	-150	-63	100557	0.64 
750.121	-0.2148	-0.1025	1.0068	-2.5024	-3.4180	7.9346	-5.2240	11.3708	161.1255	45.7200	90	-155	-64	100557	0.64 
750.215	-0.2207	-0.0879	1.0098	-0.7935	-3.1128	5.7983	-5.2295	11.1621	161.4825	45.7400	84	-155	-62	100556	0.64 
750.324	-0.2329	-0.1079	0.9956	-1.1597	-0.4272	3.1128	-5.2240	11.2335	161.6528	45.7200	83	-152	-62	100556	0.64 
750.433	-0.2334	-0.0957	1.0093	-0.4272	0.6714	0.8545	-5.3229	11.3708	161.3672	45.7200	83	-157	-64	100556	0.64 
750.527	-0.2554	-0.0884	1.0190	-1.7700	3.4790	0.9766	-5.3833	11.6949	161.2354	45.7100	80	-155	-63	100556	0.64 
750.668	-0.2334	-0.1035	1.0063	-1.2817	3.5400	-1.4038	-5.5481	12.0135	160.9113	45.7400	83	-153	-66	100556	0.64 
750.730	-0.2617	-0.0845	1.0078	-0.5493	1.9531	-2.5635	-5.6195	12.4036	160.4773	45.7100	83	-153	-64	100556	0.64 
750.809	-0.2173	-0.0986	1.0156	-1.1597	-2.0752	2.5024	-5.6964	12.3596	160.1093	45.7400	85	-158	-62	100556	0.64 
750.934	-0.2266	-0.0820	1.0054	-1.0376	-1.2817	2.1973	-5.7404	12.1289	159.8840	45.7200	87	-153	-63	100556	0.64 
751.028	-0.2383	-0.0903	0.9941	-2.9297	0.0000	1.8311	-5.8282	12.1069	159.7632	45.7200	84	-153	-64	100556	0.64 
751.152	-0.2280	-0.1172	1.0015	-1.4038	0.0000	0.1221	-6.0645	12.1509	159.6643	45.7400	83	-156	-65	100556	0.64 
751.293	-0.2256	-0.1060	0.9995	-1.2207	-0.5493	-1.5869	-6.1743	12.2168	159.3951	45.7500	84	-153	-69	100556	0.64 
751.371	-0.2095	-0.1250	0.9922	-1.0376	-0.2441	-2.5024	-6.3831	12.2168	158.9227	45.7200	86	-154	-63	100556	0.64 
751.449	-0.2227	-0.0908	1.0073	-1.4038	-3.6011	2.4414	-6.3940	12.1454	158.7085	45.7400	87	-155	-65	100556	0.64