StartTime: 2017-07-14 14:15:41.614
Time(s)	ax(g)	ay(g)	az(g)	wx(deg/s)	wy(deg/s)	wz(deg/s)	AngleX(deg)	AngleY(deg)	AngleZ(deg)	T(°)	hx	hy	hz	Pressure(Pa)	Altitude(m) 
682.693	-0.1597	-0.0991	1.0156	-0.0610	-1.9531	0.1831	-5.9601	8.9594	159.6149	45.1300	91	-156	-161	100534	0.66 
682.787	-0.1514	-0.0991	1.0176	0.4272	-1.3428	0.5493	-5.9381	8.7946	159.5874	45.1400	90	-154	-162	100533	0.66 
682.866	-0.1611	-0.0962	1.0078	-0.1221	0.3052	5.4321	-5.8612	8.7616	159.6863	45.1400	93	-155	-165	100534	0.66 
682.990	-0.1514	-0.1152	1.0161	-0.1831	0.4272	5.7373	-5.8173	8.8550	160.1862	45.1500	88	-154	-162	100533	0.66 
683.085	-0.1548	-0.1050	1.0132	0.4272	2.3804	4.4556	-5.7513	8.9868	160.5377	45.1500	84	-154	-159	100533	0.66 
683.225	-0.1670	-0.1016	1.0166	0.2441	2.8076	6.8970	-5.6415	9.2725	160.9991	45.1600	87	-157	-162	100533	0.66 
683.288	-0.1353	-0.1172	1.0107	0.4883	10.6201	4.4556	-5.5646	9.7449	161.4880	45.1400	87	-158	-160	100532	0.66 
683.396	-0.1553	-0.1284	0.9966	1.2817	17.0898	1.4038	-5.4822	10.9479	161.5100	45.1500	86	-160	-160	100533	0.66 
683.491	-0.2124	-0.1177	0.9639	1.7090	18.0054	-0.9766	-5.4327	12.6398	161.2848	45.1500	97	-160	-154	100533	0.66 
683.600	-0.2759	-0.0400	0.9434	-9.3994	26.0620	5.3101	-5.7458	15.0183	161.0101	45.1500	100	-162	-153	100533	0.66 
683.709	-0.2163	0.0303	1.1270	-2.7466	-4.7607	41.3208	-5.6744	17.3694	163.4381	45.1700	105	-160	-153	100533	0.66 
683.803	-0.1953	-0.1050	0.9268	2.4414	1.6479	9.3994	-5.3284	16.1664	165.2618	45.1600	96	-166	-151	100533	0.66 
683.928	-0.1318	0.0259	0.9229	8.5449	-8.0566	-4.0283	-4.5099	15.5182	165.0092	45.1700	88	-166	-149	100533	0.66 
684.006	-0.0244	0.0508	0.6777	2.0752	-5.4321	-13.6719	-3.7683	14.1449	163.7842	45.1700	86	-169	-151	100533	0.66 
684.100	-0.3398	0.0005	0.8975	-13.9160	10.0708	19.0430	-3.9661	14.0131	163.6743	45.1900	86	-167	-150	100533	0.66 
684.225	-1.0054	-0.2676	1.5049	14.8315	33.5083	-5.3101	-3.7848	16.9904	165.0311	45.1700	81	-166	-153	100533	0.66 
684.303	-0.3828	0.0420	1.1045	-4.6387	-31.3110	-10.4370	-3.8452	16.3422	163.9435	45.1700	78	-172	-154	100533	0.66 
684.428	-0.4380	0.0161	0.9468	-0.9766	16.8457	-1.1597	-5.0592	15.3534	162.0703	45.1600	79	-167	-153	100533	0.66 
684.537	0.0142	-0.2007	0.6328	-12.0239	-13.0615	26.5503	-4.9329	13.8208	164.3115	45.1500	73	-168	-152	100534	0.66 
684.631	-0.1162	-0.2300	0.7813	-11.1084	-22.5830	11.2305	-6.2567	12.1564	166.1627	45.1700	60	-169	-158	100534	0.66 
684.725	-0.5161	-0.3916	1.4800	-4.2725	-37.4146	-13.0005	-8.1903	13.0957	168.2996	45.1600	49	-167	-160	100534	0.66 
684.819	-0.4141	0.1040	1.1826	24.3530	-29.9683	13.1836	-6.7731	12.4695	167.9260	45.1600	41	-166	-161	100534	0.66 
684.928	-0.3413	-0.1128	0.7827	0.1831	23.3765	13.8550	-4.3945	12.1399	170.4089	45.1500	37	-173	-157	100534	0.66 
685.037	0.0249	0.1846	0.7192	-2.3804	-14.2822	-21.6675	-4.2627	10.1788	168.8324	45.1500	35	-175	-153	100535	0.66 
685.178	-0.3301	-0.1821	0.6411	-8.0566	1.3428	-5.6152	-4.1583	9.9866	168.8763	45.1600	32	-172	-153	100535	0.66 
685.256	-0.6094	-0.1621	1.5854	-10.4980	-50.9644	26.5503	-4.7241	12.6453	170.2002	45.1600	38	-170	-151	100536	0.66 
685.334	-0.0703	-0.0298	0.7944	-15.3809	-10.2539	1.2207	-6.3116	11.2885	170.5298	45.1400	30	-169	-153	100536	0.66 
685.444	-0.2881	-0.1514	0.8936	3.4180	0.4883	10.6812	-7.6300	12.7606	170.3870	45.1500	31	-165	-155	100536	0.66 
685.553	-0.0156	-0.3135	0.6436	5.5542	-20.0806	-0.3662	-6.7072	9.7778	172.5458	45.1300	28	-167	-152	100537	0.66 
685.662	-0.3511	0.1143	0.9346	-8.5449	25.4517	17.0288	-6.7456	9.5197	172.5403	45.1400	22	-167	-150	100537	0.66 
685.756	-0.2852	-0.2158	1.7798	2.2583	-6.8359	5.6763	-7.6080	10.9808	174.3970	45.1500	22	-169	-151	100538	0.66 
685.865	-0.0835	0.1694	0.8696	18.6768	6.7139	17.7612	-5.0427	9.9591	174.7705	45.1500	19	-174	-145	100539	0.66 
685.959	-0.2080	0.0034	0.7446	-1.9531	11.9019	-7.6904	-4.3726	11.3269	175.9186	45.1400	21	-176	-138	100539	0.66 
686.116	0.0039	0.0552	0.7739	0.6104	2.7466	-5.0659	-4.1309	9.6790	175.1221	45.1300	21	-172	-139	100540	0.66 
686.225	-0.3579	-0.2417	0.7983	2.9907	9.5825	-20.2026	-3.9661	9.9042	174.9902	45.1300	23	-175	-133	100540	0.66 
686.272	-0.4756	-0.4565	1.8652	4.4556	-11.3525	3.1738	-3.0652	12.5958	174.7430	45.1500	32	-175	-127	100540	0.65 
686.350	-0.0132	-0.1294	0.6929	-16.6626	3.9673	-32.5317	-4.2627	9.8932	173.5565	45.1300	35	-175	-123	100541	0.65 
686.491	-0.0532	-0.0376	0.7607	3.8452	-10.8032	9.2773	-5.2679	11.0742	172.4634	45.1200	39	-175	-129	100541	0.65 
686.569	-0.0078	-0.2339	0.7031	0.3662	-11.1694	-1.8921	-5.6140	8.8660	173.5071	45.1100	39	-171	-127	100541	0.65 
686.679	-0.6113	0.2715	1.2900	-30.9448	42.3584	16.7236	-6.1359	9.2010	173.3368	45.1100	36	-174	-125	100541	0.65 
686.772	-0.1655	-0.2207	1.4683	-4.4556	11.0474	8.5449	-7.5531	9.9591	175.6879	45.1400	40	-168	-130	100542	0.65 
686.866	-0.0474	0.1416	0.8301	18.6768	1.5869	2.1973	-6.1084	10.2008	174.9353	45.1100	41	-169	-128	100542	0.65 
687.022	-0.3101	0.0503	0.8438	1.3428	23.4985	0.7935	-4.5868	12.3322	175.1770	45.1100	46	-176	-120	100543	0.65 
687.084	0.1157	0.0166	0.7266	-1.3428	-4.2725	-19.5923	-4.2023	10.2173	173.7048	45.1100	45	-176	-117	100543	0.65 
687.194	-0.2900	-0.2129	0.9814	-1.2817	6.2866	-0.7935	-4.1418	9.2834	173.4961	45.1200	46	-173	-119	100543	0.65 
687.288	-0.0396	-0.5503	1.4751	-9.1553	-8.7891	-16.1743	-3.7518	10.2832	174.5892	45.1200	47	-177	-116	100544	0.65 
687.397	0.1489	-0.2773	0.7119	-17.5781	-2.3193	-23.9868	-4.7021	8.7122	173.7982	45.1100	43	-178	-114	100544	0.65 
687.522	-0.0840	-0.0425	0.6899	3.2959	-0.7935	8.5449	-5.4712	10.6842	172.7655	45.1000	51	-176	-120	100545	0.65 
687.584	0.0078	-0.1421	0.7061	-3.3569	-16.4795	17.5781	-5.4767	8.9758	173.6719	45.1000	48	-172	-116	100545	0.65 
687.709	-0.4570	0.1099	0.8755	-15.6250	25.0854	25.2075	-5.9161	8.6792	174.4080	45.1000	38	-175	-122	100546	0.65 
687.788	-0.0010	-0.0156	1.1279	9.4604	-0.2441	25.2686	-5.8173	10.3052	176.2646	45.1200	39	-174	-121	100546	0.65 
687.897	0.0479	0.0015	0.7524	8.0566	-14.4653	16.4795	-4.8669	10.8545	177.8851	45.1100	36	-170	-115	100546	0.65 
688.007	-0.2046	0.0835	0.8843	-1.2817	5.0049	-7.4463	-4.6033	12.3267	178.0115	45.1100	35	-173	-112	100547	0.65 
688.116	-0.0400	0.0142	0.8271	-7.1411	-6.2866	-19.6533	-4.6692	10.5963	176.2537	45.1200	38	-173	-114	100548	0.65 
688.194	-0.6187	-0.3267	1.1987	15.0146	32.6538	-29.7241	-5.1965	10.6458	174.1388	45.1200	41	-167	-117	100548	0.65 
688.319	-0.6460	0.0322	1.5532	-0.6104	-37.8418	7.5684	-4.5154	11.5796	173.6115	45.1000	46	-171	-109	100549	0.65 
688.398	-0.3989	-0.1938	0.9058	-14.3433	39.0625	-17.0288	-7.0587	8.5089	173.0511	45.1000	43	-167	-114	100549	0.65 
688.522	0.0806	-0.1060	0.6030	2.6245	-6.7139	20.4468	-7.1136	9.2065	173.4247	45.1000	45	-163	-115	100550	0.65 
688.631	-0.1304	-0.2168	0.8623	8.8501	7.6904	-16.1133	-7.4103	8.9429	172.8149	45.1000	45	-163	-113	100550	0.65 
688.757	-0.6797	0.2476	1.4258	-29.3579	44.1284	24.9634	-6.8719	10.9479	172.6282	45.1000	48	-164	-107	100550	0.65 
688.835	0.0317	0.1250	1.2554	5.4321	8.8501	38.3911	-6.1414	10.8325	175.5396	45.0900	45	-163	-108	100551	0.65 
688.913	0.1641	-0.0566	0.5151	12.9395	-7.0801	17.5781	-5.0482	10.7336	177.3688	45.0900	36	-165	-105	100551	0.65 
689.038	-0.1572	0.1074	0.7827	-7.0190	-22.6440	-7.9956	-4.6527	11.2994	177.3962	45.0800	33	-167	-104	100552	0.65 
689.131	-0.1099	0.0527	0.7920	-3.0518	-14.1602	-2.5024	-4.7681	8.3881	176.1713	45.1100	38	-164	-101	100552	0.64 
689.210	-1.0464	-0.3574	1.6035	27.1606	43.4570	-15.5640	-4.5538	10.0031	175.5176	45.0900	31	-164	-100	100553	0.64 
689.335	-0.5781	0.1997	1.3716	-16.9678	-45.8984	21.4233	-4.1034	10.5194	174.3365	45.0700	41	-162	-89	100553	0.64 
689.429	-0.2822	-0.2544	0.8682	-20.0806	42.6636	-7.4463	-7.2290	8.1738	175.1715	45.0800	34	-159	-97	100554	0.64 
689.553	0.1323	-0.1187	0.4888	0.6714	-29.1138	42.6025	-7.5476	8.7946	177.6929	45.0900	36	-158	-105	100554	0.64 
689.632	-0.2178	-0.3032	0.9341	1.7700	-7.9346	3.4180	-8.3716	9.2395	179.1705	45.0800	25	-157	-101	100554	0.64 
689.757	-1.1509	-0.4072	1.9951	-38.3301	3.7842	15.9302	-9.6240	12.8815	-178.0170	45.0800	23	-155	-96	100555	0.64 
689.850	-0.2588	0.0347	1.2056	15.6250	-17.1509	-9.8877	-9.2010	11.2390	-178.1213	45.0800	21	-153	-97	100555	0.64 
689.944	-0.1177	-0.2764	0.5737	5.3711	30.4565	-4.0894	-7.8607	9.8987	-177.6874	45.0800	20	-153	-91	100555	0.64 
690.054	0.0122	0.0845	0.8076	-8.4229	-46.0205	-34.8511	-8.0035	10.1184	179.3518	45.0900	33	-156	-92	100556	0.64 
690.163	-0.2817	0.1724	0.7061	-0.7324	-2.9297	0.3052	-7.6685	8.0859	176.8909	45.0800	41	-156	-87	100556	0.64 
690.257	-0.7363	0.0020	1.6006	-4.4556	-25.5127	55.2979	-6.8610	11.6071	177.8247	45.0700	43	-157	-83	100556	0.64 
690.366	-0.3823	-0.0571	0.9214	-15.7471	-57.3120	57.6172	-7.5311	9.8767	-178.8354	45.0700	36	-155	-84	100556	0.64 
690.444	-0.3730	-0.1294	1.0215	-9.5215	19.0430	27.2217	-9.6075	8.9264	-176.5118	45.0900	25	-153	-86	100557	0.64 
690.569	0.1392	-0.2036	0.6445	1.2207	-19.9585	35.1563	-9.2230	7.8113	-173.1940	45.0800	17	-150	-88	100557	0.64 
690.678	-0.2661	-0.0781	0.7568	15.0146	-2.0752	-1.4038	-9.0417	8.1903	-173.5785	45.0800	17	-151	-86	100558	0.64 
690.772	-0.5254	0.0054	1.4067	21.6675	-40.3442	-11.5356	-9.5251	10.4205	-174.8364	45.1000	27	-154	-84	100558	0.64 
690.867	-0.2144	-0.0645	0.9526	26.7944	-15.1367	-28.5645	-8.5638	11.2225	-176.5558	45.0900	31	-156	-83	100559	0.64 
690.991	-0.2437	-0.0215	0.6729	20.0806	10.4370	-40.8936	-6.7126	11.1292	179.8297	45.0800	46	-156	-77	100559	0.64 
691.085	-0.2598	0.0229	0.9019	13.0005	-3.9063	-56.1523	-5.3448	10.5469	174.8749	45.0700	63	-157	-73	100559	0.64 
691.163	-0.6025	-0.2324	1.3438	45.9595	-7.3853	-9.7046	-3.1586	11.4917	171.0901	45.0800	77	-158	-67	100559	0.64 
691.288	-0.3711	0.1177	0.9316	-8.9722	22.5220	-12.2681	-2.2357	12.6398	168.1567	45.0800	88	-158	-57	100559	0.64 
691.382	-0.3052	-0.2998	1.0830	-16.0522	-14.8926	7.4463	-3.4113	13.4198	168.1732	45.0900	92	-157	-59	100559	0.64 
691.492	-0.2793	-0.0620	0.9883	-5.1880	8.6670	-10.4980	-5.2185	13.6670	166.1902	45.0800	93	-156	-61	100559	0.64 
691.600	-0.3726	-0.1650	1.1230	-2.8076	0.2441	7.0190	-5.0977	13.9966	166.0144	45.0800	96	-155	-63	100559	0.64 
691.679	-0.2095	-0.1084	0.9531	-1.5869	0.9155	-2.9297	-5.6470	13.8373	165.0806	45.0600	97	-155	-63	100560	0.64 
691.804	-0.3374	-0.1123	1.0073	2.1362	-5.7983	-19.8975	-5.8777	13.5187	163.4656	45.0700	97	-154	-61	100560	0.64 
691.913	-0.2544	-0.0356	0.9985	-2.9297	-6.5308	5.0659	-5.7623	12.9089	162.0593	45.0900	102	-152	-65	100560	0.64 
692.022	-0.2783	-0.1357	0.9854	-2.8076	-3.7842	9.8877	-5.8282	12.3926	162.6965	45.0800	99	-151	-66	100559	0.64 
692.085	-0.2236	-0.0869	0.9878	0.9766	0.9155	2.0142	-5.8008	12.5464	162.5262	45.0900	99	-152	-69	100559	0.64 
692.210	-0.2500	-0.1138	0.9956	-0.8545	1.4038	2.5635	-5.6854	12.7167	162.2736	45.1100	96	-152	-71	100559	0.64 
692.304	-0.2495	-0.0879	0.9995	0.6714	3.0518	-2.3193	-5.7458	13.0902	161.6254	45.1100	97	-152	-67	100559	0.64 
692.429	-0.2559	-0.1099	0.9966	0.3662	2.5024	-2.8687	-5.7184	13.3374	160.8398	45.1100	99	-153	-69	100559	0.64 
692.507	-0.2520	-0.0791	1.0000	0.0000	0.9155	-4.2114	-5.7843	13.5461	159.9390	45.1100	100	-153	-68	100559	0.64 
692.616	-0.2646	-0.0933	0.9927	-0.9766	-1.6479	-0.9766	-5.8502	13.5352	159.2743	45.1200	98	-149	-68	100559	0.64 
692.711	-0.2246	-0.1006	0.9995	-1.0986	0.1221	0.6714	-5.8722	13.3813	158.9941	45.1200	98	-149	-68	100559	0.64 
692.835	-0.2646	-0.0820	0.9868	-0.3662	-0.3662	0.5493	-5.8667	13.3923	158.6261	45.1300	98	-153	-66	100558	0.64 
692.944	-0.2461	-0.1450	0.9956	0.0610	-5.4932	-2.3193	-5.8667	13.1067	158.5382	45.1300	95	-150	-68	100559	0.64 
693.022	-0.2192	-0.0845	1.0054	5.9814	7.6904	-12.0850	-5.8887	13.1616	156.9727	45.1100	103	-152	-68	100559	0.64 
693.132	-0.2871	-0.0337	1.0098	-2.7466	-3.5400	4.1504	-5.6140	13.5022	156.1212	45.1300	104	-149	-66	100559	0.64 
693.241	-0.2217	-0.1235	0.9966	-4.6997	-6.5308	15.5029	-5.7788	13.0682	156.9452	45.1400	104	-148	-68	100559	0.64 
693.336	-0.2354	-0.0903	0.9961	-1.1597	-3.4180	8.3008	-5.7843	12.7716	157.7911	45.1400	94	-149	-69	100559	0.64 
693.444	-0.2485	-0.0942	0.9897	-2.3193	-0.7935	4.5776	-5.7953	12.6398	158.1262	45.1500	93	-152	-70	100559	0.64 
693.569	-0.2236	-0.1060	0.9961	-0.1221	-1.0376	1.4038	-5.8777	12.6672	158.1702	45.1500	92	-156	-69	100559	0.64 
693.648	-0.2251	-0.0918	0.9922	0.0610	2.4414	-1.2817	-5.8612	12.7936	157.9285	45.1800	94	-155	-68	100559	0.64 
693.757	-0.2378	-0.1064	0.9902	0.1221	2.6855	-3.3569	-5.9052	13.0627	157.4615	45.1500	94	-151	-68	100559	0.64