run 10
StartTime: 2017-07-12 12:08:11.416
Time(s)	ax(g)	ay(g)	az(g)	wx(deg/s)	wy(deg/s)	wz(deg/s)	AngleX(deg)	AngleY(deg)	AngleZ(deg)	T(°)	hx	hy	hz	Pressure(Pa)	Altitude(m) 
396.659	-1.2002	0.0146	1.8687	-0.1831	1.5869	0.0000	1.6644	32.6624	151.0950	40.7500	-1	-246	268	100954	0.31 
396.753	-1.2124	0.0396	1.8735	-0.1221	0.9155	-1.0376	1.5875	32.8052	150.9576	40.7400	0	-245	272	100954	0.31 
396.862	-1.2046	0.0337	1.8677	-0.2441	0.4272	-0.6104	1.4941	32.8601	150.8423	40.7500	0	-247	273	100954	0.31 
397.018	-1.1992	0.0264	1.8579	-0.3052	0.9155	0.0000	1.4172	32.9425	150.7379	40.7500	1	-247	271	100954	0.31 
397.097	-1.2104	0.0313	1.8569	-0.3662	1.4648	-0.3052	1.3458	33.0908	150.6226	40.7400	0	-248	274	100954	0.31 
397.191	-1.2114	0.0229	1.8657	-0.6104	1.4648	0.6104	1.2964	33.2172	150.5951	40.7400	2	-247	273	100955	0.31 
397.347	-1.2212	0.0298	1.8638	-1.2207	2.6245	0.1831	1.2085	33.3984	150.5896	40.7400	2	-250	273	100954	0.31 
397.409	-1.2134	0.0303	1.8525	-0.4883	5.8594	3.1128	1.1371	33.6731	150.6555	40.7400	4	-247	270	100955	0.31 
397.503	-1.2422	0.0322	1.8696	0.0000	7.1411	7.1411	1.5326	34.4092	151.1884	40.7500	3	-248	271	100955	0.31 
397.613	-1.2520	0.0254	1.8638	-2.6855	1.4648	4.8828	1.7523	34.7278	151.7816	40.7700	0	-249	274	100955	0.31 
397.878	-1.2456	0.0244	1.8628	-2.3193	0.1221	3.9063	1.6699	34.6454	152.0837	40.7800	3	-247	276	100955	0.31 
397.956	-1.2412	0.0190	1.8525	-1.4038	0.4272	3.7231	1.7303	34.5685	152.3914	40.7800	0	-248	271	100954	0.31 
398.019	-1.2388	0.0269	1.8511	-1.9531	0.5493	4.6997	1.8182	34.5575	152.7374	40.7600	-2	-246	270	100955	0.31 
398.065	-1.2422	0.0088	1.8599	-0.7935	0.4883	1.7090	1.8127	34.6234	152.9297	40.7900	-2	-246	270	100954	0.31 
398.190	-1.2402	0.0254	1.8628	-0.7935	-0.5493	1.7090	1.7358	34.5630	152.8198	40.7700	-5	-246	269	100954	0.31 
398.269	-1.2373	0.0205	1.8540	-1.5259	-0.1831	2.9297	1.6974	34.4806	152.8583	40.7900	-6	-246	270	100953	0.31 
398.363	-1.2417	0.0059	1.8604	-0.1831	0.1221	-0.6104	1.6150	34.4531	152.7704	40.8100	-3	-245	267	100953	0.31 
398.457	-1.2524	0.0220	1.8545	0.1221	-1.3428	0.0000	1.5436	34.3433	152.5122	40.7900	-1	-246	269	100953	0.31 
398.566	-1.2437	0.0078	1.8535	0.1831	-1.7090	-0.4272	1.4886	34.1675	152.3419	40.7800	-2	-247	269	100954	0.31 
398.675	-1.2329	-0.0190	1.8511	0.5493	-1.3428	-2.9907	1.3184	34.0302	151.9574	40.7700	0	-244	271	100954	0.31 
398.800	-1.1924	-0.0142	1.8472	1.7700	-0.4272	-8.8501	0.9283	33.8708	150.9961	40.7900	-2	-249	269	100954	0.31 
398.894	-1.2158	0.0063	1.8511	6.5308	3.9673	-19.1650	0.2307	34.0411	149.0900	40.7900	1	-248	271	100954	0.31 
399.050	-1.2173	-0.0400	1.8379	8.7891	10.1929	-25.6348	-0.5768	34.5630	146.4587	40.8100	6	-247	274	100954	0.31 
399.159	-1.3467	0.0669	1.9238	13.1836	14.4653	-29.9072	-1.3074	35.8374	143.0585	40.8000	15	-247	278	100954	0.31 
399.207	-1.2583	-0.0244	1.8789	12.9395	15.3809	-16.4795	-1.6095	36.3208	140.6415	40.8100	23	-243	281	100954	0.31 
399.347	-1.2368	-0.1064	1.8120	9.7656	13.5498	-11.5967	-1.4832	37.3755	139.2242	40.8100	31	-243	286	100954	0.31 
399.441	-1.2729	-0.0444	1.8765	18.7988	20.2026	-31.6772	-1.9281	39.0619	136.0492	40.8000	39	-245	290	100954	0.31 
399.550	-1.2715	0.2407	1.4741	-4.9438	5.3101	-25.3296	-3.3069	39.8859	132.1216	40.8000	49	-242	299	100954	0.31 
399.659	-1.1270	-0.6318	2.1309	24.4141	22.8271	-61.0352	-5.4602	41.1877	129.3860	40.7900	60	-241	303	100954	0.31 
399.769	-1.3564	0.2637	2.2969	13.9160	-15.8081	-13.8550	-5.4053	41.8359	123.8214	40.7700	78	-227	318	100954	0.31 
399.863	-0.8682	-0.1191	1.1890	-12.4512	-59.5703	-5.3101	-4.5813	38.4686	125.8429	40.7200	81	-226	316	100955	0.31 
400.003	-1.3926	0.5293	0.9746	21.5454	39.3677	-33.6304	-6.7401	36.5735	121.8054	40.6700	82	-222	306	100955	0.31 
400.097	-0.8013	0.1924	1.7041	20.2637	0.8545	-27.7100	-3.7408	38.3533	124.4421	40.6600	85	-227	317	100955	0.31 
400.191	-1.1724	-0.5034	1.7207	12.0850	-59.7534	-30.7007	-3.1036	39.3915	125.0189	40.6400	86	-229	319	100956	0.31 
400.300	-1.1982	0.3101	0.6904	-7.2021	-52.4902	57.3120	-1.8512	35.2991	125.6616	40.6200	87	-227	314	100956	0.31 
400.425	-1.7256	0.3926	2.4956	-0.8545	-30.2124	-33.7524	-4.2792	39.5673	123.1073	40.5900	84	-227	318	100956	0.31 
400.503	-1.3110	0.1802	1.8267	-5.4932	-50.9033	10.9863	-4.7791	37.3590	122.8326	40.5700	92	-220	316	100956	0.31 
400.628	-1.1216	0.2188	0.6084	-2.7466	-37.2925	-87.2192	-8.7726	32.3877	118.2184	40.5500	93	-215	305	100956	0.31 
400.723	-1.2998	-0.8545	2.1592	-6.7749	-94.4824	-30.9448	-5.7788	35.4254	121.7889	40.5400	98	-211	306	100957	0.31 
400.832	-1.5581	-0.3423	2.2017	-25.1465	-44.3726	47.3022	-5.3394	35.7330	122.1405	40.5400	100	-213	301	100957	0.31 
400.972	-1.0635	0.3306	0.4146	-25.6958	-25.8789	86.9751	-4.0649	31.0803	126.7548	40.5000	91	-215	287	100957	0.31 
401.050	-2.3394	0.7690	4.1172	29.9072	-0.8545	-20.5078	-3.7903	40.7208	128.2599	40.4700	82	-226	294	100957	0.31 
401.160	-1.3125	0.3994	2.1401	7.5073	-13.4277	4.3335	-2.3181	38.7817	129.7870	40.4800	87	-223	299	100957	0.31 
401.269	-1.0024	-0.2241	0.9150	-12.5732	-34.9121	-22.5220	-2.4280	36.8921	131.5009	40.4500	89	-224	292	100957	0.31 
401.378	-2.1846	1.2070	2.8325	53.4058	157.7759	158.7524	-2.2632	38.3807	129.3365	40.4500	93	-220	283	100958	0.31 
401.488	-1.2192	0.5742	2.1289	4.5166	68.4814	14.9536	1.0327	38.7048	134.7583	40.4300	84	-231	287	100957	0.31 
401.613	-1.0796	0.0098	1.5645	10.5591	-70.7397	-43.6401	0.8185	37.6392	135.0494	40.4200	81	-235	289	100957	0.31 
401.691	-1.1128	0.0703	0.7051	-17.3340	-12.0850	41.8701	1.6809	33.9862	138.0872	40.3600	74	-238	274	100957	0.31 
401.800	-1.2710	0.1187	2.4800	0.4272	-54.9927	24.7803	0.9503	41.3910	136.6919	40.3700	80	-241	288	100957	0.31 
401.910	-1.3062	0.3784	2.0981	-9.9487	-47.9736	46.8750	3.1256	40.6714	138.1970	40.3500	87	-241	296	100957	0.31 
402.050	-1.2178	-0.0049	0.5996	1.4648	-10.4980	-94.6655	-0.9119	36.3867	135.4504	40.3300	77	-242	279	100957	0.31 
402.128	-2.3027	0.2158	4.4297	-0.6714	128.3569	157.8979	1.0162	41.4404	134.3024	40.3200	88	-235	281	100957	0.31 
402.269	-1.6455	0.4873	2.6152	-14.2822	73.1812	7.2632	0.9009	41.2811	135.4834	40.3200	89	-241	288	100957	0.31 
402.378	-0.9287	-0.0273	1.2397	4.8828	-49.3774	-1.2207	0.3790	38.3807	136.2415	40.3000	91	-243	291	100957	0.31 
402.441	-1.2090	-0.1226	0.5371	-15.8691	-25.9399	68.7866	3.1750	34.2609	142.9651	40.2800	76	-249	271	100957	0.31 
402.550	-0.9639	-0.3579	2.2900	-7.0801	-48.0347	35.4004	3.0157	39.2267	145.5359	40.2700	64	-254	277	100957	0.31 
402.660	-1.1255	-0.0122	1.6489	22.2778	-46.2646	2.0142	6.6138	35.8209	147.2552	40.2700	61	-262	279	100957	0.31 
402.754	-0.7891	0.0107	0.4937	-37.8418	-59.9365	-17.5171	4.1309	31.3824	144.4427	40.2300	54	-263	270	100956	0.31 
402.894	-2.8867	-0.0088	5.8594	-7.0801	198.8525	110.3516	8.4814	39.8254	148.6615	40.2000	52	-260	276	100956	0.31 
402.988	-2.0425	0.2905	2.9141	-13.1836	31.5552	-10.1318	5.1965	39.9408	143.7616	40.2000	56	-265	283	100956	0.31 
403.067	-1.0664	0.1821	1.0503	-15.5640	-22.7661	19.7754	4.0649	38.8641	144.3384	40.1800	61	-265	281	100956	0.31 
403.208	-1.0391	-0.1528	0.7622	-22.2168	4.5166	29.6021	6.6577	38.6224	152.1167	40.1600	46	-272	273	100955	0.31 
403.319	-0.5020	1.0679	0.5835	-36.0718	-233.2153	108.0322	2.2687	45.3461	146.4917	40.1500	57	-270	285	100955	0.31 
403.413	-1.5264	0.1533	1.7979	10.0708	5.7983	28.4424	6.8994	48.5046	153.6218	40.1500	51	-270	281	100956	0.31 
403.507	-0.8545	-0.1304	1.2266	4.9438	17.0288	-8.1787	9.9426	50.0647	156.7969	40.1300	41	-277	285	100956	0.31 
403.663	-2.9624	1.5850	3.3599	68.9697	161.8652	204.0405	17.6715	54.7284	160.5487	40.1100	48	-280	293	100956	0.31 
403.710	-1.7979	1.0386	1.9727	66.8945	122.4365	-67.5049	20.1599	59.1669	158.6206	40.1200	42	-290	318	100956	0.31 
403.834	-1.8682	0.5034	1.5981	28.3813	55.0537	-11.7798	29.1962	66.8243	164.6246	40.1200	58	-292	349	100956	0.31 
403.944	-1.6323	0.5400	0.9619	8.6060	29.4189	0.1221	34.8376	69.9500	169.1400	40.1000	60	-291	368	100956	0.31 
404.053	-1.8599	0.4453	1.4131	15.8081	53.0396	-0.5493	46.6040	72.4713	-179.5496	40.0900	56	-292	383	100956	0.31 
404.148	-1.9648	0.3813	1.2427	6.0425	18.8599	-4.4556	51.6962	72.8503	-175.2319	40.1000	53	-295	389	100957	0.31 
404.256	-1.8706	0.2837	1.2280	-1.0376	11.5356	15.3198	55.4370	72.1088	-171.5735	40.1000	47	-296	394	100957	0.31 
404.366	-1.8398	0.3018	1.2061	-4.9438	-7.6294	6.3477	53.3551	71.1365	-173.4961	40.1200	41	-300	397	100957	0.31 
404.491	-1.8306	0.2983	1.2651	-6.0425	-5.9204	3.7842	48.0927	69.9390	-178.2642	40.1300	40	-297	395	100957	0.31 
404.585	-1.8911	0.3452	1.3184	-7.2632	-6.4697	7.7515	44.2255	68.9008	178.3191	40.1400	39	-299	390	100956	0.31 
404.694	-1.8032	0.3335	1.3042	-2.9907	0.7324	7.0801	40.6659	67.9010	174.9408	40.1400	34	-304	387	100956	0.31 
404.804	-2.0444	0.3208	1.5059	-3.9063	-4.3945	-3.7842	37.6227	67.6373	171.7877	40.1200	36	-302	387	100956	0.31 
404.928	-1.8037	0.2710	1.2554	-11.2305	-29.5410	-2.0142	30.6683	65.8191	165.2179	40.1300	40	-300	385	100956	0.31 
405.007	-1.8882	0.3228	1.4243	-7.2632	-19.9585	-1.8921	25.5927	63.0341	160.7245	40.1300	37	-300	377	100956	0.31 
405.147	-1.7813	0.2769	1.4507	-13.1226	-28.0762	-12.5732	20.6873	59.8810	156.3849	40.1300	38	-298	368	100957	0.31 
405.257	-1.7939	0.2466	1.5127	-15.1978	-23.0103	-15.5640	15.0073	57.1399	151.4246	40.1200	40	-297	359	100957	0.31 
405.335	-1.7690	0.2344	1.5117	-5.1270	-35.8276	4.3335	11.7334	54.3274	148.6505	40.1400	46	-295	346	100957	0.31 
405.491	-1.6240	0.2495	1.3765	0.0000	-18.4937	0.3052	10.1239	51.5479	146.7828	40.1300	45	-298	341	100957	0.31 
405.569	-1.7637	0.2168	1.6646	7.9346	3.4790	-5.9814	9.6570	50.8887	145.8435	40.1600	46	-295	337	100957	0.31 
405.663	-1.7334	0.2603	1.6533	5.7373	-19.2261	-7.3853	8.8660	49.6527	143.8715	40.1700	48	-296	341	100957	0.31 
405.744	-1.6289	0.1729	1.7285	-3.3569	-40.8325	-8.8501	7.3608	46.1646	142.0532	40.1700	48	-294	337	100957	0.31