StartTime: 2017-07-07 14:56:27.700
Time(s)	ax(g)	ay(g)	az(g)	wx(deg/s)	wy(deg/s)	wz(deg/s)	AngleX(deg)	AngleY(deg)	AngleZ(deg)	T(°)	hx	hy	hz	Pressure(Pa)	Altitude(m) 
60.326	-0.9897	0.0029	1.8770	-0.9766	-0.1221	0.4272	-0.0220	27.1582	-170.5682	43.9700	-155	-300	199	100654	0.56 
60.420	-0.9980	0.0156	1.8818	-0.2441	-0.1221	1.0986	-0.0439	27.1912	-170.5518	43.9800	-154	-299	204	100654	0.56 
60.513	-0.9980	0.0059	1.8896	-0.6714	-1.5869	0.7935	-0.0275	27.1912	-170.5518	43.9800	-153	-298	202	100654	0.56 
60.592	-0.9941	0.0142	1.8809	-0.7935	-1.6479	0.8545	-0.0549	27.0703	-170.5518	43.9700	-155	-299	201	100654	0.56 
60.748	-0.9912	0.0107	1.8843	-1.4648	-3.1128	0.6104	-0.1044	26.8561	-170.5243	43.9900	-154	-300	200	100654	0.56 
60.811	-0.9854	0.0132	1.8838	-1.8311	-6.8359	0.7324	-0.2087	26.4111	-170.5353	43.9900	-154	-298	201	100654	0.56 
60.935	-0.9849	0.0078	1.8877	-2.5635	-10.5591	1.3428	-0.3021	25.6421	-170.4529	43.9800	-157	-299	205	100654	0.56 
61.045	-0.9746	0.0020	1.8906	-3.7842	-17.0288	-0.3662	-0.5603	24.4116	-170.4089	44.0000	-160	-295	202	100654	0.56 
61.139	-0.9380	-0.0020	1.8838	-5.1880	-28.0151	-1.5259	-0.9943	22.3022	-170.4474	44.0000	-164	-299	202	100654	0.56 
61.232	-0.8760	-0.0024	1.8652	-6.5918	-38.0249	-1.5869	-1.5656	19.2151	-170.4584	44.0000	-173	-296	201	100654	0.56 
61.373	-0.8174	-0.0195	1.8599	-6.8970	-43.0908	-1.5259	-2.1863	15.5457	-170.1288	43.9900	-182	-297	206	100654	0.56 
61.436	-0.6328	-0.0381	1.9028	-7.0801	-53.8940	-0.7935	-2.8070	11.5741	-169.4806	44.0200	-196	-295	209	100654	0.56 
61.545	-0.5552	-0.0640	1.8428	-8.7280	-59.6924	5.2490	-3.5486	5.7513	-168.3105	44.0000	-207	-292	215	100653	0.56 
61.654	-0.4868	-0.0864	1.6929	-7.0801	-66.7725	6.2866	-4.1693	0.1593	-166.7450	44.0200	-222	-290	222	100654	0.56 
61.733	-0.4268	-0.0610	1.6675	-8.1787	-64.0259	6.6528	-5.0098	-5.1855	-164.8334	44.0100	-239	-291	238	100653	0.56 
61.857	-0.3086	-0.0825	1.5933	-7.8735	-60.9741	6.2866	-6.0425	-10.2393	-162.5098	44.0300	-254	-287	247	100653	0.56 
61.998	-0.1914	-0.1318	1.4600	-4.3945	-63.7817	10.1929	-7.0313	-14.9854	-159.7357	44.0300	-262	-284	260	100654	0.56 
62.029	-0.2368	-0.1660	1.3965	-2.1362	-55.8472	8.6060	-8.2068	-19.2755	-156.4673	44.0200	-272	-283	278	100654	0.56 
62.170	0.0654	-0.1748	1.2373	-2.5635	-52.5513	-5.7373	-9.1241	-23.5107	-153.9514	44.0200	-279	-283	297	100654	0.56 
62.264	-0.0796	-0.1113	1.1997	-3.6011	-43.7012	-7.1411	-9.6075	-26.5320	-152.6001	44.0300	-281	-289	311	100654	0.56 
62.373	0.0562	-0.1587	1.1060	-2.3804	-38.9404	-12.3291	-9.9701	-29.1742	-151.6333	44.0300	-279	-296	326	100654	0.56 
62.452	0.0698	-0.1714	1.1406	0.4272	-9.4604	-6.9580	-9.9042	-29.2346	-150.7489	44.0300	-279	-297	335	100654	0.56 
62.576	0.0371	-0.1118	1.0615	0.3052	-3.4180	-0.4272	-9.6350	-28.3887	-150.1556	44.0100	-278	-297	338	100654	0.56 
62.655	0.0908	-0.0459	1.0669	1.4038	-6.5308	1.7700	-9.3988	-26.8835	-149.2932	44.0200	-273	-297	337	100654	0.56 
62.779	0.0005	-0.1455	1.1191	0.3052	6.7749	1.4648	-9.4318	-25.0323	-148.1836	44.0200	-271	-299	341	100655	0.56 
62.920	-0.0537	-0.0947	1.1519	1.5869	6.9580	-4.3945	-9.0308	-22.7911	-147.9364	44.0200	-275	-302	341	100654	0.56 
62.998	-0.0542	-0.0835	1.1860	-1.1597	-1.4038	4.5776	-8.7671	-21.0278	-147.4036	44.0100	-275	-299	336	100655	0.56 
63.077	-0.0381	-0.0859	1.1758	-0.5493	0.7324	-2.0142	-8.7012	-19.7534	-146.7444	44.0100	-274	-302	339	100654	0.56 
63.217	-0.0537	-0.0674	1.1475	-0.3052	-0.4883	0.7935	-8.4869	-18.5669	-146.3544	44.0200	-272	-302	340	100654	0.56 
63.295	-0.0396	-0.0806	1.1650	-0.1221	1.0376	0.0610	-8.3221	-17.2321	-145.8710	44.0000	-272	-304	337	100654	0.56 
63.405	-0.0405	-0.0728	1.1650	-0.6104	-0.3662	0.0610	-8.1738	-16.0785	-145.4150	44.0200	-271	-304	338	100654	0.56 
63.499	-0.0371	-0.0728	1.1587	-0.5493	-0.6104	0.1831	-8.0475	-15.0732	-144.9207	44.0200	-272	-301	338	100654	0.56 
63.639	-0.0391	-0.0767	1.1597	-0.2441	0.9766	0.1831	-7.8992	-14.0680	-144.4867	44.0100	-272	-306	338	100654	0.56 
63.702	-0.0454	-0.0776	1.1602	-0.1831	-0.6104	0.3662	-7.7344	-13.1012	-144.0802	44.0200	-274	-307	340	100654	0.56 
63.842	-0.0386	-0.0762	1.1646	-0.3052	-0.0610	0.2441	-7.5916	-12.1948	-143.6627	44.0200	-275	-305	340	100654	0.56 
63.905	-0.0244	-0.0811	1.1523	-0.6104	-3.4790	3.2959	-7.4377	-11.4203	-143.1683	44.0200	-274	-304	337	100653	0.56 
64.030	-0.0303	-0.0854	1.1641	-1.2207	-5.6152	2.4414	-7.3553	-10.9314	-142.6740	44.0200	-273	-307	339	100653	0.56 
64.154	-0.0332	-0.0811	1.1528	-1.5869	-1.8311	4.8218	-7.3224	-10.4865	-142.1082	44.0100	-273	-304	335	100653	0.56 
64.233	0.0103	-0.1069	1.1460	-0.8545	-0.9155	4.0894	-7.3993	-9.8877	-141.2787	44.0100	-274	-303	339	100653	0.56 
64.358	-0.0181	-0.0908	1.1421	-0.9155	-4.3945	0.3052	-7.3773	-9.5856	-140.8282	44.0300	-274	-304	341	100653	0.56 
64.451	-0.0249	-0.0698	1.1206	-1.4038	-13.0005	-2.2583	-7.3114	-9.9042	-140.6964	44.0200	-275	-304	342	100653	0.56 
64.576	-0.0259	-0.0981	1.0791	-1.1597	-13.1226	0.0610	-7.3114	-10.5743	-140.3668	44.0200	-273	-301	342	100653	0.56 
64.655	0.0068	-0.1025	1.0527	-0.9155	-12.3901	3.4790	-7.3499	-11.0687	-139.8175	44.0200	-273	-304	352	100653	0.56 
64.780	0.0415	-0.1128	1.0151	1.7700	11.7798	3.1738	-7.3663	-10.3821	-138.9771	44.0200	-273	-303	354	100653	0.56 
64.858	0.0210	-0.0947	1.0415	4.6387	37.2925	1.7090	-6.9269	-7.3938	-138.5815	44.0200	-277	-302	346	100653	0.56 
64.998	-0.0796	-0.1230	1.2012	3.1738	45.2271	6.9580	-6.3666	-2.7466	-138.3344	44.0100	-275	-301	338	100653	0.56 
65.092	0.0313	-0.0908	1.2925	3.9063	52.1851	-1.1597	-5.9766	2.3016	-138.5706	44.0100	-278	-296	325	100653	0.56 
65.186	-0.2344	-0.0806	1.3677	3.7842	58.4717	4.0283	-5.5371	7.8058	-139.0759	44.0200	-277	-295	310	100653	0.56 
65.280	-0.2759	-0.0566	1.4019	6.7139	56.8237	4.2725	-4.9548	13.4912	-139.3561	44.0300	-272	-297	295	100652	0.56 
65.389	-0.1523	-0.1089	1.5469	6.7139	58.2886	1.8921	-4.2462	18.9185	-139.5538	44.0200	-270	-292	276	100653	0.56 
65.514	-0.2637	-0.0903	1.6240	5.8594	58.8989	-1.7090	-3.7518	24.0051	-140.2295	44.0200	-257	-292	264	100653	0.56 
65.592	-0.4316	-0.0728	1.6699	6.2256	62.5610	-3.5400	-3.4058	29.1852	-141.4215	44.0500	-247	-295	252	100653	0.56 
65.701	-0.5107	-0.0166	1.7559	3.8452	64.5752	-5.9814	-3.6035	34.5630	-143.2178	44.0200	-236	-294	240	100653	0.56 
65.795	-0.6426	-0.0200	1.8242	2.6245	63.7207	-2.5635	-3.8123	39.7650	-144.8657	44.0300	-216	-299	226	100653	0.56 
65.920	-0.7373	-0.0405	1.8418	1.7090	59.8755	-2.9907	-4.1089	44.5331	-146.5192	44.0400	-202	-300	221	100653	0.56 
66.030	-0.9072	-0.0005	1.8545	0.1831	61.5845	2.9907	-4.7406	49.2902	-148.6340	44.0300	-188	-299	216	100653	0.56 
66.108	-1.0332	-0.0107	1.8774	-1.8311	48.4009	5.6763	-5.0702	53.3221	-150.2820	44.0500	-170	-299	209	100653	0.56 
66.233	-1.1235	-0.0059	1.9004	-1.0376	31.6162	5.4321	-5.0372	55.8765	-151.4081	44.0400	-160	-298	203	100653	0.56 
66.373	-1.1294	-0.0244	1.8745	-0.1831	15.6250	2.5635	-4.9329	56.6125	-152.6056	44.0500	-149	-297	198	100652	0.56 
66.452	-1.1235	-0.0547	1.8794	-1.8921	6.8359	-2.6855	-5.4547	56.1786	-154.4513	44.0300	-144	-294	201	100652	0.56 
66.546	-1.1162	-0.0562	1.8721	-1.5869	-0.4883	-4.2725	-6.7126	54.9207	-157.0221	44.0400	-137	-295	196	100652	0.56 
66.655	-1.1187	-0.0244	1.8813	-1.2207	-3.4180	-3.5400	-7.1521	53.3002	-158.8074	44.0300	-135	-292	198	100652	0.56 
66.749	-1.0996	-0.0474	1.8706	-1.5869	-4.2725	-1.0376	-7.2949	51.5204	-160.1202	44.0500	-138	-298	199	100652	0.56 
66.874	-1.0894	-0.0381	1.8726	-1.4038	-4.5776	-0.1831	-7.2345	49.8560	-161.0870	44.0500	-139	-295	195	100652	0.56 
66.952	-1.0723	-0.0503	1.8750	-1.4038	-5.7373	0.7324	-7.0807	48.2135	-161.9110	44.0600	-139	-294	199	100652	0.56 
67.077	-1.0752	-0.0576	1.8726	-1.2817	-7.5073	0.0000	-6.9049	46.5106	-162.5867	44.0500	-142	-296	196	100652	0.56 
67.217	-1.0801	-0.0449	1.9019	-1.5869	-7.1411	0.2441	-6.7841	45.0000	-163.2898	44.0700	-141	-296	196	100652	0.56 
67.280	-1.0571	-0.0586	1.8857	-0.5493	-13.7939	0.4272	-6.4709	42.9730	-163.7457	44.0400	-145	-294	200	100652	0.56 
67.436	-1.0073	-0.0547	1.8833	-0.1221	-18.7988	0.0610	-6.1469	40.5560	-164.1412	44.0500	-147	-294	196	100653	0.56 
67.514	-0.9878	-0.0508	1.8828	-0.2441	-20.8130	1.0376	-5.7074	37.9578	-164.2896	44.0800	-155	-291	197	100653	0.56 
67.608	-0.9331	-0.0576	1.8672	-0.7935	-23.6816	0.4883	-5.3009	35.1672	-164.2950	44.0600	-161	-291	198	100653	0.56 
67.733	-0.9160	-0.0503	1.8877	-1.7700	-28.1372	-0.4272	-5.0757	32.1680	-164.3335	44.0700	-164	-294	201	100652	0.56 
67.842	-0.8389	-0.0552	1.8530	-2.6245	-43.7622	4.6997	-4.8340	28.4271	-163.9764	44.0600	-174	-296	204	100652	0.56 
67.921	-0.7739	-0.0698	1.8608	-1.6479	-48.9502	0.6714	-4.6143	23.7415	-163.5260	44.0700	-188	-291	210	100652	0.56 
68.014	-0.6558	-0.0874	1.8276	-2.6245	-57.6782	1.4648	-4.4714	18.6383	-162.7625	44.0800	-201	-292	215	100652	0.56 
68.124	-0.6689	-0.0518	1.6855	-3.5400	-46.9360	0.4883	-4.4440	13.6560	-161.8451	44.0900	-215	-291	218	100653	0.56 
68.217	-0.5293	-0.0884	1.7822	-2.6855	-48.9502	0.4883	-4.5374	9.2670	-160.6805	44.0800	-229	-292	231	100653	0.56 
68.312	-0.4531	-0.0493	1.7041	-3.6621	-58.2275	1.0376	-4.6967	4.3506	-159.5435	44.0700	-239	-289	237	100653	0.56 
68.436	-0.3281	-0.0791	1.6182	-4.7607	-59.6924	5.0659	-5.0647	-0.5823	-157.9449	44.0700	-249	-292	249	100653	0.56 
68.515	-0.2358	-0.1040	1.5220	-7.0801	-60.1196	6.6528	-5.6854	-5.5371	-155.9674	44.0700	-260	-290	259	100653	0.56 
68.639	-0.2085	-0.1318	1.4399	-6.5918	-56.3965	5.9814	-6.5259	-10.2173	-153.9020	44.0800	-269	-291	279	100653	0.56 
68.718	-0.0669	-0.1523	1.3716	-3.1128	-47.9736	2.6855	-7.4432	-14.2657	-151.7706	44.0800	-276	-288	290	100653	0.56 
68.842	-0.1621	-0.0859	1.2554	-0.5493	-39.4287	-2.1973	-7.7454	-17.6221	-150.2875	44.0500	-280	-289	301	100653	0.56 
68.937	-0.1880	-0.1313	1.2646	2.4414	-32.2266	2.2583	-7.7728	-19.6051	-149.1339	44.0700	-283	-297	315	100653	0.56 
69.061	0.1001	-0.1470	1.1758	-1.0986	-23.1934	-2.9907	-7.8278	-21.0718	-147.8979	44.0700	-284	-297	326	100653	0.56 
69.140	-0.1743	-0.0522	1.2163	-1.7090	5.4932	-8.7891	-7.8333	-21.0388	-147.3871	44.0500	-278	-294	330	100652	0.56 
69.264	-0.0864	-0.0977	1.2251	-2.1973	-3.7842	1.8311	-8.0365	-20.0555	-146.8103	44.0500	-275	-295	336	100652	0.56 
69.343	0.0039	-0.0996	1.1968	0.4883	-4.5776	-3.2959	-8.0255	-18.8965	-146.1456	44.0500	-280	-294	333	100652	0.56 
69.468	-0.0435	-0.0542	1.1694	0.0610	-5.9814	-2.2583	-7.7563	-17.9022	-145.8655	44.0600	-277	-299	332	100652	0.56 
69.562	-0.0659	-0.0654	1.2329	0.0000	2.2583	-1.0376	-7.6025	-16.6223	-145.4755	44.0500	-277	-297	333	100652	0.56 
69.671	-0.0913	-0.0898	1.1626	0.5493	2.1362	-0.2441	-7.5092	-15.5676	-144.8547	44.0500	-275	-301	337	100652	0.56 
69.765	-0.0356	-0.1138	1.1851	-0.6104	1.6479	0.9766	-7.5092	-14.2932	-144.2010	44.0500	-276	-299	335	100652	0.56 
69.889	-0.0400	-0.0703	1.1929	-0.3662	-0.6104	-0.6714	-7.3553	-13.2056	-143.9154	44.0300	-275	-299	332	100651	0.56 
69.968	-0.0493	-0.1021	1.1968	-0.3662	-1.0986	0.2441	-7.2455	-12.2882	-143.4705	44.0700	-275	-301	332	100651	0.56 
70.093	-0.0444	-0.1006	1.1978	-0.7324	-1.2207	0.7324	-7.2070	-11.5137	-143.0530	44.0600	-277	-298	334	100651	0.56 
70.187	-0.0503	-0.0908	1.1909	-0.3052	-1.6479	0.0610	-7.1631	-10.8710	-142.5586	44.0500	-276	-300	335	100652	0.56 
70.296	-0.0508	-0.0825	1.1865	-0.4883	-0.7324	0.6714	-7.0367	-10.2173	-142.2180	44.0600	-274	-299	334	100652	0.56 
70.390	-0.0537	-0.0889	1.2007	-0.3662	0.0000	0.8545	-6.9818	-9.4482	-141.7236	44.0500	-279	-300	333	100652	0.56 
70.514	-0.0552	-0.0815	1.1953	-0.6104	-1.5869	-0.2441	-6.9104	-8.8440	-141.3721	44.0200	-278	-301	335	100651	0.56 
70.593	-0.0630	-0.0864	1.1963	-0.4272	-2.3804	0.3052	-6.8225	-8.3441	-141.1029	44.0300	-277	-305	336	100652	0.56 
70.718	-0.0615	-0.1035	1.1987	-0.1221	-1.4038	0.9155	-6.7676	-7.8882	-140.7513	44.0200	-276	-303	335	100652	0.56 
70.811	-0.0552	-0.0796	1.2124	-0.4272	-1.2207	1.4648	-6.6577	-7.3883	-140.4272	44.0300	-275	-302	335	100652	0.56 
70.936	-0.0381	-0.0854	1.1934	-0.7935	-8.4839	3.5400	-6.6302	-7.2949	-139.7406	44.0300	-273	-302	338	100651	0.56 
71.015	-0.0610	-0.0728	1.1758	-0.5493	-9.7046	-10.5591	-6.7017	-7.6190	-139.5923	44.0400	-276	-299	339	100651	0.56 
71.155	-0.0928	-0.0664	1.1792	-0.5493	-14.5264	1.6479	-6.5314	-8.1189	-139.6472	44.0400	-277	-301	340	100651	0.56 
71.280	0.1968	-0.1216	0.9751	-4.8828	-34.6069	7.8735	-6.8225	-9.5636	-138.5760	44.0300	-277	-303	344	100651	0.56 
71.343	-0.0059	-0.0747	1.0967	0.4272	15.7471	6.4087	-6.9598	-9.2834	-137.7686	44.0300	-274	-298	349	100652	0.56 
71.452	0.0176	-0.1313	1.0522	2.1362	30.0293	6.4087	-6.8115	-6.8170	-137.1259	44.0300	-276	-296	347	100651	0.56 
71.562	-0.0107	-0.1069	1.1748	2.8687	43.0298	2.6855	-6.5918	-2.8619	-136.8622	44.0400	-280	-293	337	100652	0.56 
71.640	-0.0576	-0.1211	1.3047	3.4180	53.8940	-0.8545	-6.2457	2.0544	-137.1698	44.0300	-281	-295	329	100652	0.56 
71.750	-0.2515	-0.1084	1.3691	5.0049	55.7861	-1.2207	-5.8502	7.4762	-137.9608	44.0500	-278	-294	311	100652	0.56 
71.843	-0.2051	-0.0854	1.4297	5.3101	53.5889	-7.2632	-5.4492	12.7716	-139.1089	44.0500	-272	-295	292	100652	0.56 
71.968	-0.1641	-0.0967	1.5654	5.7983	51.7578	-5.3101	-5.0262	17.6111	-140.2350	44.0400	-268	-295	282	100652	0.56 
72.077	-0.2876	-0.0508	1.5923	5.9204	46.6309	-7.2021	-4.7351	21.7035	-141.5588	44.0500	-259	-298	273	100652	0.56 
72.202	-0.4063	-0.0532	1.6641	8.7280	46.5698	0.9766	-4.1034	25.6421	-142.6080	44.0500	-248	-298	261	100651	0.56 
72.280	-0.4243	-0.0107	1.6733	5.9814	47.8516	-6.5918	-3.5760	29.3719	-143.6517	44.0400	-238	-298	252	100651	0.56 
72.390	-0.5254	0.0093	1.7534	4.5776	51.7578	-4.5776	-3.3453	33.3435	-145.1074	44.0400	-228	-302	241	100651	0.56 
72.468	-0.5679	0.0093	1.7817	1.7700	62.2559	0.3662	-3.2300	37.8644	-146.1621	44.0400	-213	-302	236	100651	0.56 
72.608	-0.7124	-0.0156	1.8032	2.1362	63.1714	2.0142	-3.0267	42.9346	-147.1014	44.0200	-204	-303	227	100651	0.56 
72.703	-0.8818	0.0073	1.8657	-1.2817	61.8896	-1.0986	-3.2794	47.8894	-148.5626	44.0300	-188	-301	220	100650	0.56 
72.797	-1.0000	0.0298	1.8862	-1.7700	42.3584	-3.3569	-4.3341	51.7511	-150.9137	44.0400	-172	-303	212	100650	0.56 
72.968	-1.0552	0.0044	1.8540	-0.6714	31.7993	-0.4883	-4.9493	53.7836	-152.8363	44.0300	-158	-302	206	100650	0.56 
73.030	-1.1084	-0.0112	1.9019	-0.7324	19.4092	0.1221	-5.4877	54.8273	-154.8138	44.0300	-147	-300	204	100650	0.56 
73.187	-1.1201	-0.0151	1.8828	-1.6479	10.6201	-2.8076	-5.9875	54.6570	-156.5826	44.0300	-140	-303	202	100650	0.56 
73.234	-1.1289	-0.0083	1.8901	-2.4414	7.6904	-2.1362	-6.4600	54.2065	-158.3020	44.0400	-138	-302	201	100650	0.56 
73.343	-1.1123	-0.0088	1.8770	-1.4648	0.7935	-0.1221	-6.7401	53.1079	-159.8291	44.0300	-134	-297	203	100650	0.56 
73.468	-1.0967	-0.0132	1.8706	-0.3052	-1.3428	0.7935	-6.6138	51.6852	-160.9058	44.0300	-133	-299	207	100650	0.56 
73.531	-1.1006	-0.0137	1.8765	-0.2441	-2.9907	1.2817	-6.2677	50.2625	-161.7517	44.0400	-133	-299	202	100650	0.56 
73.655	-1.0908	-0.0098	1.8730	-0.4272	-4.5166	0.6104	-5.9930	48.7079	-162.5812	44.0400	-133	-300	204	100650	0.56 
73.750	-1.0801	-0.0151	1.8760	-0.0610	-3.9063	1.0376	-5.7074	47.2522	-163.3228	44.0300	-135	-303	201	100651	0.56 
73.874	-1.0776	-0.0073	1.8750	-0.6104	-4.7607	1.4648	-5.4053	45.8459	-163.9709	44.0400	-136	-301	205	100651	0.56 
74.030	-1.0825	-0.0127	1.8823	-1.1597	-7.0190	0.7324	-5.1306	44.3518	-164.5093	44.0600	-141	-299	204	100651	0.56 
74.077	-1.0850	-0.0156	1.8901	-0.0610	-10.8032	2.5635	-4.8560	42.6489	-164.9487	44.0500	-140	-301	203	100651	0.56 
74.218	-1.0508	-0.0107	1.8730	-1.8311	-18.1274	1.3428	-4.5648	40.4462	-165.2179	44.0500	-145	-302	203	100651	0.56 
74.265	-1.0225	-0.0190	1.8857	-3.5400	-25.4517	0.0610	-4.4440	37.6556	-165.4047	44.0500	-149	-302	201	100651	0.56 
74.390	-0.9565	-0.0259	1.8794	-2.8687	-30.8838	2.0752	-4.3835	34.3268	-165.4871	44.0700	-154	-300	204	100651	0.56 
74.500	-0.8989	-0.0303	1.8735	-3.6621	-38.0859	0.1831	-4.3066	30.5969	-165.3278	44.0600	-166	-297	207	100651	0.56 
74.593	-0.7456	-0.0327	1.8638	-6.4697	-50.0488	7.7515	-4.2737	26.0211	-164.8279	44.0900	-177	-298	207	100651	0.56 
74.687	-0.7339	-0.0620	1.8096	-4.4556	-63.4155	-2.0142	-4.3726	20.6543	-164.0533	44.0700	-193	-296	210	100651	0.56 
74.874	-0.6987	-0.0605	1.7939	-5.1880	-62.0728	0.4272	-4.5154	14.7382	-163.2404	44.0800	-208	-292	216	100651	0.56 
74.906	-0.6343	-0.0664	1.7764	-4.6387	-65.7959	-0.5493	-4.8230	8.6792	-162.3615	44.0800	-221	-289	228	100651	0.56 
75.015	-0.4331	-0.0645	1.7095	-4.4556	-67.3218	3.5400	-5.1031	2.6862	-161.0651	44.0600	-237	-292	240	100651	0.56 
75.109	-0.2798	-0.0732	1.5483	-3.6621	-68.3594	2.8076	-5.4163	-3.1860	-159.2908	44.0700	-248	-292	253	100652	0.56 
75.219	-0.3110	-0.1060	1.4683	-5.1880	-72.3267	1.1597	-5.9601	-9.1736	-157.5165	44.0700	-257	-288	267	100652	0.56 
75.327	-0.0669	-0.1455	1.3472	-0.6104	-58.5327	7.4463	-6.3226	-14.5898	-155.5719	44.0700	-268	-294	284	100652	0.56 
75.453	-0.0327	-0.1240	1.2881	1.2817	-42.9688	-1.0376	-6.7346	-18.3527	-153.4515	44.0600	-271	-295	297	100652	0.56 
75.546	-0.1655	-0.0635	1.2427	-1.3428	-37.5977	-0.7324	-6.8719	-21.2146	-152.1222	44.0600	-277	-298	312	100652	0.56 
75.687	0.1992	-0.1104	1.0791	-2.3804	-32.3486	9.8267	-7.1686	-23.1152	-150.7709	44.0600	-275	-301	328	100652	0.56 
75.749	0.3350	-0.1445	0.9937	-0.4883	-1.0986	-7.0190	-7.4762	-23.6700	-149.7107	44.0400	-277	-301	335	100652	0.56 
75.828	-0.0171	-0.1558	1.1353	3.0518	12.0850	-3.1128	-7.2894	-21.6486	-149.1449	44.0500	-275	-303	332	100652	0.56 
75.938	-0.1646	-0.0063	1.1890	8.5449	6.6528	-4.5166	-6.8005	-19.6820	-148.5242	44.0400	-274	-302	333	100651	0.56 
76.031	-0.2339	-0.0430	1.2178	4.0283	5.0659	5.6763	-6.2457	-17.7155	-147.7606	44.0300	-269	-302	334	100652	0.56 
76.156	-0.0518	0.0073	1.2505	-0.1221	3.7231	2.0142	-5.8612	-16.0510	-147.1838	44.0300	-274	-301	333	100651	0.56 
76.296	-0.1157	-0.1089	1.2715	-1.8311	7.5073	0.1831	-5.9381	-14.5129	-146.4478	44.0300	-274	-299	332	100651	0.56 
76.359	-0.1318	-0.0874	1.3042	-1.4648	-1.8921	-4.1504	-6.0480	-13.2275	-146.1346	44.0200	-274	-302	332	100651	0.56 
76.469	-0.0435	-0.0698	1.2129	0.6104	-4.7607	-3.1738	-5.9271	-13.0902	-145.8325	44.0400	-273	-299	334	100651	0.56 
76.578	-0.0527	-0.0630	1.2148	-1.2207	1.8921	-0.3662	-5.7623	-12.3486	-145.6073	44.0200	-273	-302	334	100651	0.56 
76.656	-0.0503	-0.0601	1.2134	1.9531	3.0518	-2.9297	-5.6250	-11.4313	-145.3271	44.0100	-272	-298	335	100651	0.56 
76.781	-0.0469	-0.0688	1.2188	-0.1221	3.4180	1.6479	-5.4602	-10.3107	-144.8767	44.0200	-270	-305	334	100651	0.56 
76.906	-0.0757	-0.0352	1.2583	-3.6011	7.2021	-1.5869	-5.4492	-9.1681	-144.6021	44.0300	-271	-301	330	100650	0.56 
76.984	-0.0767	-0.0405	1.2295	0.4883	-4.0894	0.0000	-5.3284	-8.3826	-143.9978	44.0200	-270	-305	330	100651	0.56 
77.093	-0.0615	-0.0718	1.2295	-0.7935	-1.5259	0.7935	-5.2405	-7.9541	-143.5913	44.0200	-270	-304	331	100651	0.56 
77.188	-0.0615	-0.0708	1.2300	-0.9766	-2.0142	-0.0610	-5.2570	-7.4103	-143.2233	44.0000	-271	-304	329	100651	0.56 
77.297	-0.0620	-0.0508	1.2329	0.0000	-2.5024	-0.1221	-5.1801	-7.0148	-142.9706	44.0000	-270	-303	329	100651	0.56 
77.406	-0.0688	-0.0566	1.2324	0.0610	-1.5869	0.6714	-5.0482	-6.6577	-142.7289	44.0000	-274	-306	330	100651	0.56 
77.546	-0.0688	-0.0557	1.2378	0.4883	-5.5542	-0.5493	-4.9548	-6.4050	-142.4707	43.9800	-270	-306	335	100651	0.56 
77.609	-0.0815	-0.0845	1.2275	-2.9907	-7.8125	0.7324	-4.9109	-6.4160	-141.9489	43.9800	-272	-302	335	100651	0.56 
77.750	-0.0396	-0.0537	1.1768	-1.8921	-7.1411	5.9814	-4.9988	-6.6907	-141.3721	43.9700	-271	-304	337	100651	0.56 
77.813	-0.0771	-0.0938	1.2036	-0.3052	-5.6763	-2.0142	-5.1855	-6.5698	-140.8997	43.9700	-274	-302	338	100651	0.56 
77.922	-0.1055	-0.0747	1.2070	0.4883	-16.7847	-3.1128	-5.0757	-7.1082	-140.8722	43.9600	-270	-303	340	100651	0.56 
78.078	-0.0332	-0.0684	1.1592	-0.4883	-23.6206	5.8594	-5.0208	-8.4595	-140.4932	43.9600	-271	-305	346	100650	0.56 
78.161	0.0522	-0.0815	1.0498	-2.2583	-1.0986	-0.6714	-5.3229	-9.7229	-139.5648	43.9300	-270	-304	350	100650	0.56 
78.224	0.0405	-0.0938	1.0195	2.3804	19.6533	6.6528	-5.2844	-8.4650	-138.7848	43.9300	-272	-305	352	100650	0.56 
78.395	-0.0117	-0.1182	1.1426	3.1738	35.8887	7.6294	-4.9713	-4.9658	-138.0652	43.9400	-276	-301	347	100650	0.56 
78.489	-0.0605	-0.0742	1.2559	2.8076	45.8374	6.1646	-4.7021	-0.4889	-137.7466	43.9300	-279	-298	335	100650	0.56 
78.551	-0.1650	-0.1050	1.3042	0.0000	50.5981	1.1597	-4.5264	4.4879	-137.6477	43.9300	-277	-294	318	100650	0.56 
78.645	-0.1787	-0.0933	1.3823	-0.6104	49.0723	-6.0425	-4.6692	9.4373	-138.1421	43.9300	-278	-294	305	100650	0.56 
78.801	-0.0474	-0.1099	1.4609	-0.2441	47.7905	-10.9253	-4.9493	13.7549	-139.1254	43.9200	-273	-291	293	100650	0.56 
78.895	-0.2778	-0.0874	1.5342	2.2583	42.2974	-5.2490	-5.0867	17.7869	-140.4053	43.9200	-262	-294	278	100650	0.56 
79.020	-0.3848	-0.0718	1.5898	2.7466	40.7715	-3.5400	-4.9713	21.4343	-141.4600	43.9200	-259	-296	267	100650	0.56 
79.098	-0.3975	-0.0430	1.6743	2.7466	39.4287	-0.2441	-4.7296	24.6094	-142.3883	43.9100	-248	-296	261	100650	0.56 
79.176	-0.3740	-0.0518	1.6816	3.0518	40.3442	-1.0986	-4.4604	27.6251	-143.0585	43.9300	-246	-297	249	100650	0.56 
79.255	-0.4600	-0.0361	1.6992	5.0659	49.8047	0.1221	-4.2352	31.2781	-143.9978	43.9200	-236	-298	241	100650	0.56 
79.442	-0.5806	-0.0361	1.7520	4.6387	57.8613	3.0518	-3.9166	35.6451	-145.0250	43.9200	-223	-299	236	100650	0.56 
79.536	-0.6724	-0.0229	1.7930	2.1362	63.1714	-2.1973	-3.9001	40.6494	-146.2939	43.9000	-209	-298	228	100650	0.56 
79.598	-0.8535	-0.0273	1.9219	-2.1973	54.1992	-5.3101	-4.5703	45.2856	-148.2935	43.9200	-190	-297	219	100650	0.56 
79.708	-0.9312	-0.0122	1.8740	-2.1362	41.3208	-3.5400	-5.8063	48.3289	-150.7983	43.9200	-179	-301	209	100650	0.56 
79.817	-0.9873	-0.0361	1.8745	-2.3193	32.1655	1.9531	-6.3116	50.5261	-152.4408	43.9200	-164	-298	205	100649	0.56 
79.911	-1.0313	-0.0317	1.8901	-1.8311	23.4985	2.4414	-6.5863	51.8060	-153.9185	43.9200	-156	-300	203	100649	0.56 
80.083	-1.0693	-0.0557	1.8999	-3.4180	15.9302	1.2207	-6.9049	52.3608	-155.3467	43.9300	-148	-296	206	100650	0.56 
80.161	-1.0688	-0.0420	1.8979	-1.9531	9.3384	-1.4648	-7.4103	52.0642	-156.9452	43.9200	-146	-295	199	100650	0.56 
80.270	-1.0718	-0.0396	1.8838	-0.7935	5.1880	0.8545	-7.5476	51.3611	-158.2910	43.9200	-141	-299	196	100650	0.56 
80.348	-1.0649	-0.0420	1.8774	-0.7935	0.6104	0.6714	-7.4158	50.3119	-159.3512	43.9200	-140	-296	197	100650	0.56 
80.473	-1.0708	-0.0469	1.8848	-0.9155	0.4272	1.3428	-7.2290	49.1199	-160.3125	43.9400	-137	-295	196	100650	0.56 
80.551	-1.0640	-0.0498	1.8853	-0.3662	0.1831	0.6104	-7.0203	47.9553	-161.1530	43.9200	-139	-294	197	100650	0.56 
80.661	-1.0679	-0.0366	1.8755	-1.5259	-0.0610	0.1831	-6.8225	46.8292	-161.9769	43.9300	-139	-296	196	100649	0.56 
80.755	-1.0625	-0.0498	1.8716	-1.9531	-4.2725	0.3052	-6.7346	45.5768	-162.7570	43.9300	-138	-295	197	100650	0.56 
80.880	-1.0679	-0.0581	1.8872	-2.0142	-7.1411	1.1597	-6.6028	44.1211	-163.3997	43.9300	-139	-294	200	100650	0.56 
80.973	-1.0645	-0.0522	1.8809	-1.4038	-10.9253	1.5869	-6.3831	42.4127	-163.9160	43.9400	-143	-294	196	100650	0.56 
81.083	-1.0464	-0.0469	1.8896	-2.1973	-21.1792	-1.4038	-6.2292	40.0177	-164.3335	43.9500	-147	-295	194	100650	0.56 
81.192	-1.0151	-0.0659	1.8838	-1.5869	-29.6021	0.0610	-6.0645	36.8921	-164.6686	43.9400	-151	-293	198	100650	0.56 
81.286	-0.9463	-0.0762	1.8730	-2.8687	-44.9829	-0.3662	-5.7788	32.6624	-164.5807	43.9500	-165	-292	198	100650	0.56 
81.395	-0.8379	-0.0576	1.9185	-0.7324	-58.5327	1.7700	-5.4163	27.3505	-164.2291	43.9600	-176	-292	199	100651	0.56 
81.490	-0.6416	-0.1016	1.8423	0.3052	-78.0029	1.2207	-4.7791	20.0995	-163.2568	43.9400	-192	-291	210	100651	0.56 
81.583	-0.5518	-0.0649	1.7910	1.6479	-69.7021	1.3428	-4.3781	13.1671	-162.2791	43.9500	-208	-290	218	100651	0.56 
81.708	-0.4644	-0.1055	1.6880	-1.0986	-62.6831	5.5542	-4.0540	7.0862	-160.8014	43.9500	-227	-294	236	100650	0.56 
81.802	-0.4824	-0.0752	1.6719	-3.4790	-59.0820	2.9907	-4.1199	1.5106	-159.3402	43.9400	-241	-294	243	100650	0.56 
81.911	-0.3164	-0.0542	1.6147	-4.8218	-62.3169	5.0659	-4.4934	-3.6914	-157.7142	43.9600	-251	-293	260	100650	0.56 
82.020	-0.1572	-0.0933	1.4282	-6.5918	-64.4531	7.5073	-5.1581	-8.8934	-155.9070	43.9400	-260	-293	271	100650	0.56 
82.099	-0.2432	-0.1509	1.3628	-4.8828	-56.5796	8.1787	-6.0480	-13.5352	-153.6548	43.9500	-271	-291	288	100650	0.56 
82.208	0.0381	-0.1147	1.3018	0.2441	-43.0298	3.2959	-6.6687	-17.0728	-151.6498	43.9600	-275	-293	306	100650	0.56 
82.333	-0.0562	-0.0977	1.2266	2.1973	-28.9917	-5.6763	-6.8994	-19.5447	-149.7382	43.9500	-280	-292	314	100650	0.56 
82.427	-0.1479	-0.1094	1.2129	-0.4883	-27.8320	6.0425	-7.0477	-20.7477	-148.0682	43.9500	-283	-292	324	100650	0.56 
82.552	0.1602	-0.1934	1.1226	-4.8828	-20.8740	-3.0518	-7.5311	-21.7090	-146.8872	43.9400	-281	-294	333	100650	0.56 
82.677	0.0630	-0.1348	1.1348	-2.8076	-6.5918	-10.8032	-7.6135	-21.2860	-146.9531	43.9400	-280	-295	333	100651	0.56 
82.739	-0.0415	-0.0928	1.1528	-0.6714	3.9673	-0.3052	-7.6630	-20.5170	-146.6016	43.9300	-274	-300	336	100651	0.56 
82.864	-0.0547	-0.0449	1.1470	-0.4883	-12.5122	7.7515	-7.5476	-19.8468	-145.9314	43.9400	-276	-301	338	100651	0.56 
82.958	-0.0381	-0.1240	1.1196	2.0142	3.6011	-4.6997	-7.6025	-19.0173	-145.0250	43.9200	-278	-301	338	100651	0.56 
83.114	-0.0317	-0.0752	1.1284	-1.6479	-0.9155	-1.5259	-7.2180	-17.6770	-145.1019	43.9200	-277	-299	339	100651	0.56 
83.177	-0.0552	-0.1069	1.1870	0.4883	3.8452	-1.0986	-7.2070	-16.1664	-144.7119	43.9200	-275	-302	338	100651	0.56 
83.255	-0.0728	-0.0728	1.1816	0.0610	0.9766	0.6104	-7.0697	-14.9249	-144.2780	43.9200	-274	-301	337	100651	0.56 
83.364	-0.0391	-0.0796	1.1655	-0.8545	-1.4648	-0.1221	-6.9928	-13.8977	-143.8934	43.9300	-274	-303	338	100651	0.56 
83.458	-0.0391	-0.0781	1.1616	-0.5493	0.1831	-0.1221	-6.9214	-13.0133	-143.5199	43.8800	-273	-302	335	100651	0.56 
83.583	-0.0308	-0.0757	1.1646	-0.5493	0.2441	-0.6104	-6.8500	-12.0630	-143.1628	43.8800	-272	-304	337	100651	0.56 
83.677	-0.0454	-0.0801	1.1738	-0.2441	-0.0610	-0.3662	-6.7566	-11.1566	-142.8717	43.8900	-273	-302	337	100651	0.56 
83.771	-0.0508	-0.0767	1.1836	-0.3052	-0.2441	-0.3052	-6.6412	-10.3601	-142.5421	43.8800	-272	-302	335	100651	0.56 
83.880	-0.0420	-0.0762	1.1768	-0.3662	0.3662	0.5493	-6.5259	-9.6625	-142.2565	43.8700	-271	-302	334	100652	0.56 
83.989	-0.0508	-0.0850	1.1768	-0.1221	-1.0986	1.3428	-6.4160	-8.9813	-141.9489	43.8500	-276	-307	338	100651	0.56 
84.083	-0.0425	-0.0718	1.1709	-0.4883	-0.1831	2.9907	-6.3556	-8.3936	-141.4819	43.8500	-272	-302	337	100651	0.56 
84.192	-0.0464	-0.0654	1.1797	-0.8545	0.1831	1.0986	-6.2842	-7.7454	-141.0809	43.8500	-273	-302	339	100651	0.56 
84.302	-0.0889	-0.0996	1.2002	-1.4038	-3.0518	7.3242	-6.3062	-7.0972	-140.5096	43.8600	-275	-303	337	100651	0.56 
84.396	-0.0552	-0.0786	1.1636	-0.5493	-3.7842	0.1221	-6.4215	-6.9489	-139.9658	43.8500	-273	-298	336	100651	0.56 
84.505	-0.0410	-0.0674	1.1499	-0.7935	-9.2773	1.5869	-6.3226	-6.9708	-139.7736	43.8600	-274	-301	336	100651	0.56 
84.614	-0.0127	-0.1304	1.0801	-0.9766	-20.9961	-5.1270	-6.4929	-8.0914	-139.0814	43.8400	-279	-299	337	100651	0.56 
84.708	-0.0176	-0.0889	1.0903	-1.0986	-14.6484	-0.7324	-6.3556	-9.1187	-139.2297	43.8600	-274	-303	346	100651	0.56 
84.802	0.0557	-0.0820	1.0078	-1.9531	-4.7607	2.5024	-6.4819	-9.6295	-138.7848	43.8400	-271	-303	351	100651	0.56 
84.912	0.0186	-0.0850	1.0386	1.3428	17.2729	7.5684	-6.5259	-8.1683	-137.8949	43.8300	-275	-301	348	100651	0.56 
85.036	0.0093	-0.1040	1.0811	2.8687	30.3345	-9.7046	-6.3171	-5.3394	-137.8235	43.8200	-275	-301	347	100650	0.56 
85.161	-0.0146	-0.1270	1.1763	2.5024	38.3911	4.6997	-5.8502	-1.5765	-137.7740	43.8100	-275	-298	336	100650	0.56 
85.208	-0.1323	-0.0996	1.2852	4.5166	44.4946	3.3569	-5.4327	2.7795	-137.8400	43.8200	-274	-299	327	100650	0.56 
85.333	-0.2217	-0.0806	1.3286	3.7842	43.3960	-1.6479	-4.9274	7.1906	-138.3344	43.8200	-274	-295	319	100649	0.56 
85.443	-0.1025	-0.0532	1.4141	2.4414	43.0298	-4.3945	-4.6198	11.6016	-139.1034	43.8300	-270	-297	301	100649	0.56 
85.537	-0.2598	-0.0728	1.4604	2.2583	41.9922	-5.0659	-4.4550	15.4852	-140.0317	43.8400	-268	-297	291	100649	0.56 
85.646	-0.3638	-0.0684	1.5532	4.6387	44.0674	-0.5493	-4.2627	19.1821	-140.9656	43.8200	-262	-296	279	100649	0.56 
85.771	-0.2891	-0.0464	1.6162	5.5542	41.8701	-1.5869	-3.7958	22.7142	-141.6248	43.8300	-255	-300	269	100649	0.56 
85.880	-0.3340	-0.0166	1.6499	4.4556	38.5742	-1.2817	-3.3453	26.0211	-142.4323	43.8300	-250	-299	261	100649	0.56 
85.943	-0.4214	-0.0083	1.6646	2.9907	42.6025	-3.8452	-3.1860	29.2896	-143.4375	43.8100	-237	-300	252	100649	0.56 
86.068	-0.4790	-0.0239	1.7490	1.5259	55.7861	-4.6387	-3.1805	33.2281	-144.5801	43.8400	-228	-302	242	100649	0.56 
86.177	-0.6274	-0.0078	1.7720	-2.8076	58.4106	-1.9531	-3.5815	37.8589	-145.9644	43.8200	-216	-303	231	100650	0.56 
86.286	-0.6919	-0.0024	1.8237	-4.4556	68.4204	-1.0376	-4.3451	43.1927	-147.4475	43.8300	-202	-300	224	100649	0.56 
86.380	-0.8691	-0.0264	1.8750	-6.7749	62.8662	-3.2349	-5.6470	48.3069	-149.6997	43.8200	-182	-301	215	100650	0.56 
86.505	-1.0264	-0.0337	1.8931	-4.4556	53.4668	2.5635	-6.9873	52.5641	-151.8750	43.8400	-169	-303	204	100650	0.56 
86.599	-1.0981	-0.0557	1.8931	-0.7324	34.3018	8.3618	-6.9214	55.4700	-153.0945	43.8300	-153	-298	202	100649	0.56 
86.709	-1.1396	-0.0420	1.8857	0.1221	17.2729	1.8311	-7.0477	56.3873	-154.6655	43.8400	-140	-298	197	100649	0.56 
86.818	-1.1357	-0.0366	1.8740	2.1362	6.6528	0.2441	-7.1356	56.0083	-156.4618	43.8500	-139	-298	202	100649	0.56 
86.927	-1.1084	-0.0249	1.8696	1.7090	-1.4038	-0.6714	-7.1960	54.7504	-158.2416	43.8400	-130	-296	199	100649	0.56 
87.021	-1.1030	-0.0269	1.8770	1.9531	-3.1128	-0.6714	-7.0258	53.1134	-159.6643	43.8300	-131	-299	202	100649	0.56 
87.130	-1.0942	-0.0156	1.8804	1.3428	-4.5776	0.1221	-6.6742	51.3721	-160.7629	43.8400	-134	-299	201	100649	0.56 
87.224	-1.0874	-0.0127	1.8735	0.9766	-5.0049	0.8545	-6.2402	49.6637	-161.6254	43.8300	-138	-300	204	100650	0.56 
87.334	-1.0742	-0.0151	1.8818	-0.1221	-5.4321	0.0610	-5.9052	47.9718	-162.4219	43.8500	-136	-297	205	100650	0.56 
87.443	-1.0815	-0.0200	1.8794	-0.6104	-7.0801	0.8545	-5.6085	46.2744	-163.1030	43.8500	-140	-300	202	100650	0.56 
87.568	-1.0757	-0.0166	1.8853	-0.8545	-11.3525	-0.0610	-5.3888	44.4012	-163.7238	43.8500	-141	-301	201	100650	0.56 
87.677	-1.0420	-0.0195	1.8813	-1.5869	-17.9443	0.1831	-5.1801	42.0776	-164.2291	43.8500	-141	-301	202	100650	0.56 
87.740	-1.0273	-0.0244	1.8945	-0.6714	-23.7427	-0.4272	-4.9548	39.3640	-164.6796	43.8500	-147	-299	202	100650	0.56 
87.865	-0.9707	-0.0093	1.8740	-2.1362	-33.1421	0.3662	-4.7516	35.9033	-164.9213	43.8600	-153	-301	203	100650	0.56 
87.959	-0.8916	-0.0308	1.8911	-3.1128	-43.7012	0.1221	-4.5648	31.5967	-164.8169	43.8500	-165	-299	206	100650	0.56 
88.083	-0.7964	-0.0278	1.8696	-3.5400	-49.8657	0.5493	-4.4659	26.7627	-164.3994	43.8600	-176	-295	209	100650	0.56 
88.162	-0.7075	-0.0518	1.7920	-4.0283	-54.1992	3.4790	-4.3561	21.4893	-163.6743	43.8500	-187	-295	215	100650	0.56 
88.302	-0.6372	-0.0405	1.7998	-4.2114	-47.7905	2.1362	-4.4550	16.4905	-162.8503	43.8600	-202	-296	222	100649	0.56 
88.365	-0.5117	-0.0620	1.7979	-4.3945	-53.7109	3.1738	-4.5593	11.6840	-161.8121	43.8600	-217	-297	225	100649	0.56 
88.490	-0.3857	-0.0620	1.6641	-4.3335	-58.0444	5.2490	-4.7406	6.7017	-160.5432	43.8700	-228	-293	234	100649	0.56 
88.584	-0.3633	-0.0840	1.6240	-7.0801	-59.3872	9.5215	-5.1031	1.5491	-158.7799	43.8400	-242	-294	246	100649	0.56 
88.693	-0.3428	-0.0986	1.5903	-4.2114	-60.1196	4.8218	-5.5481	-3.7518	-156.9287	43.8600	-252	-292	258	100650	0.56 
88.771	-0.1699	-0.0811	1.4585	-4.3335	-60.9741	10.0098	-6.1688	-8.7506	-154.8633	43.8500	-264	-290	273	100649	0.56 
88.896	-0.0679	-0.1372	1.3345	-3.7231	-50.2319	5.4932	-6.8280	-13.1891	-152.5397	43.8400	-274	-292	284	100649	0.56 
88.975	-0.2139	-0.1421	1.2900	-2.9297	-42.0532	5.9204	-7.4432	-16.4850	-150.7489	43.8400	-280	-291	297	100649	0.56 
89.100	0.0771	-0.1357	1.2139	-0.5493	-32.8979	-2.5024	-7.9321	-18.9954	-149.0625	43.8400	-280	-290	311	100650	0.56 
89.194	0.0581	-0.1177	1.1943	-0.8545	-22.7661	-7.3853	-8.1134	-20.5664	-147.9913	43.8500	-281	-293	322	100650	0.56 
89.318	-0.1343	-0.0869	1.1836	-3.1738	-18.1274	-6.1646	-8.2013	-21.7090	-147.6892	43.8500	-282	-297	327	100650	0.56 
89.397	-0.0132	-0.0938	1.1860	-0.6104	-16.7847	-1.7090	-8.1189	-21.6431	-147.4969	43.8300	-277	-301	336	100650	0.56 
89.521	0.0693	-0.0991	1.0757	1.3428	-8.9111	3.2959	-7.9651	-21.3574	-146.8268	43.8300	-279	-303	336	100650	0.56 
89.600	0.0098	-0.1030	1.1196	0.1221	-0.5493	-0.1831	-7.8333	-20.0830	-146.0577	43.8300	-274	-303	343	100650	0.56 
89.725	-0.0439	-0.1006	1.1533	1.8311	6.3477	-1.5259	-7.5256	-18.3636	-145.7336	43.8200	-275	-301	341	100651	0.56 
89.834	-0.0688	-0.0552	1.1865	0.9155	7.1411	-5.5542	-7.0093	-16.5454	-145.9424	43.8000	-272	-299	335	100651	0.56 
89.943	-0.0674	-0.0571	1.1929	-0.3662	0.0610	0.0000	-6.7291	-15.1776	-145.8051	43.8000	-272	-303	334	100651	0.56 
90.068	-0.0288	-0.0645	1.1636	-0.4272	-1.4648	-0.9155	-6.6083	-14.2438	-145.4974	43.7900	-270	-304	341	100651	0.56 
90.162	-0.0420	-0.0728	1.1655	-0.2441	0.8545	1.4038	-6.5259	-13.2330	-144.9976	43.7700	-271	-305	337	100651	0.56 
90.318	-0.0557	-0.0493	1.1904	-0.3052	2.4414	-0.8545	-6.3995	-12.0795	-144.6240	43.7700	-269	-306	336	100651	0.56 
90.365	-0.0503	-0.0596	1.1895	-0.3052	-0.3052	0.0000	-6.2732	-11.1346	-144.2780	43.7300	-274	-306	334	100651	0.56 
90.459	-0.0459	-0.0591	1.1812	-0.6104	-0.7935	0.7324	-6.1688	-10.4150	-143.8715	43.7600	-271	-303	336	100651	0.56 
90.553	-0.0430	-0.0571	1.1768	-0.4272	0.6714	0.3052	-6.0699	-9.6899	-143.5144	43.7400	-269	-306	333	100651	0.56 
90.662	-0.0469	-0.0508	1.1777	-0.3052	-0.5493	-0.1831	-5.9326	-8.9594	-143.2452	43.7500	-268	-307	336	100651	0.56 
90.818	-0.0410	-0.0615	1.1875	-0.4272	0.2441	1.4648	-5.8447	-8.2727	-142.8772	43.7500	-271	-305	335	100651	0.56 
90.943	-0.0439	-0.0537	1.1895	-0.6104	-0.3052	2.6245	-5.7513	-7.6300	-142.4323	43.7800	-271	-304	337	100651	0.56 
90.974	-0.0498	-0.0576	1.1987	-0.9766	-2.5024	4.1504	-5.7019	-7.0917	-141.9159	43.7800	-270	-303	333	100650	0.56 
91.099	-0.1074	-0.1016	1.1841	-1.0376	-8.3008	4.8828	-5.7733	-6.9873	-141.2457	43.7600	-270	-306	332	100650	0.56 
91.194	-0.0879	-0.0610	1.2012	-0.3052	-6.9580	-0.8545	-5.7184	-7.0093	-140.9326	43.7700	-273	-305	333	100650	0.56 
91.303	-0.0791	-0.0557	1.1890	-2.4414	-10.1318	6.5308	-5.6415	-7.2729	-140.6635	43.7700	-272	-305	338	100651	0.56 
91.396	-0.0068	-0.0532	1.1260	-0.9766	-15.5029	4.6997	-5.7788	-8.1354	-140.0482	43.7600	-270	-304	341	100651	0.56 
91.521	0.0791	-0.1108	1.0107	-0.0610	-16.4185	5.0659	-5.8337	-9.3384	-139.0759	43.7700	-276	-304	348	100651	0.56 
91.599	-0.0010	-0.0264	1.0488	1.9531	14.3433	-6.5918	-5.7843	-8.6462	-139.0155	43.7600	-273	-304	348	100651	0.56 
91.724	0.0493	-0.0327	1.0752	-0.6714	35.6445	3.1738	-5.5371	-5.7788	-139.0320	43.7800	-270	-301	346	100651	0.56 
91.818	-0.0654	-0.1274	1.1982	0.0000	49.9268	7.6904	-5.4822	-1.2415	-138.4222	43.7700	-275	-302	334	100650	0.56 
91.912	-0.0903	-0.1226	1.3105	3.9673	53.5278	2.6245	-5.3613	4.0924	-138.3783	43.7800	-275	-299	320	100651	0.56 
92.022	-0.0942	-0.1211	1.3916	7.0801	62.5610	-6.4697	-4.8669	9.7449	-139.0430	43.7600	-270	-297	308	100651	0.56 
92.131	-0.3096	-0.0396	1.4600	4.8218	57.9224	-3.6621	-4.3726	15.3644	-140.1855	43.7600	-264	-298	288	100650	0.56 
92.240	-0.3418	-0.0562	1.5869	5.5542	55.1758	-5.8594	-3.9441	20.3522	-141.2732	43.7900	-259	-296	275	100651	0.56 
92.303	-0.3560	-0.0127	1.6699	2.7466	54.9316	-10.0708	-3.9771	25.0543	-142.7783	43.7700	-250	-300	264	100650	0.56 
92.428	-0.4443	-0.0269	1.6807	5.1270	54.0771	1.3428	-3.7244	29.6851	-143.8440	43.7600	-241	-298	253	100650	0.56 
92.553	-0.5156	-0.0449	1.7432	3.2959	59.3262	-3.8452	-3.4717	34.2664	-144.7723	43.7700	-226	-303	241	100650	0.56 
92.631	-0.6426	-0.0156	1.8296	1.5869	58.2275	-0.4883	-3.6639	39.0619	-146.1456	43.7700	-213	-305	234	100650	0.56 
92.756	-0.7451	0.0112	1.8379	-0.2441	52.5513	-2.9297	-3.8947	43.4180	-147.5793	43.7700	-199	-305	222	100650	0.56 
92.865	-0.8511	-0.0259	1.8491	-4.4556	51.2085	-4.5776	-4.7351	47.3071	-149.4415	43.7600	-184	-302	214	100651	0.56 
92.975	-0.9517	-0.0049	1.8633	-4.6997	46.0205	4.4556	-5.8063	50.9601	-151.4301	43.7500	-167	-302	210	100650	0.56 
93.069	-1.0479	-0.0244	1.8901	-1.0986	36.4380	5.7373	-5.9381	53.6957	-152.5616	43.7500	-155	-302	202	100650	0.56 
93.193	-1.0928	-0.0410	1.8750	-4.3335	23.4985	1.4038	-6.2183	55.1294	-153.9075	43.7600	-146	-299	203	100650	0.56 
93.272	-1.1362	-0.0400	1.8892	-1.8921	15.4419	-0.1831	-6.7950	55.5194	-155.7257	43.7600	-140	-295	202	100650	0.56 
93.397	-1.1309	-0.0425	1.8950	-2.2583	8.7280	-1.5869	-7.3993	55.1733	-157.6263	43.7600	-135	-295	201	100650	0.56 
93.475	-1.1138	-0.0483	1.8740	-1.7700	4.5776	-0.7324	-7.7344	54.2560	-159.2358	43.7500	-130	-297	196	100650	0.56 
93.631	-1.1191	-0.0439	1.8701	-0.8545	0.6104	0.3052	-7.8168	53.0914	-160.5707	43.7800	-132	-295	199	100650	0.56 
93.725	-1.1104	-0.0449	1.8711	-0.7935	-0.7324	0.3052	-7.6630	51.7676	-161.6309	43.7500	-129	-294	197	100650	0.56 
93.818	-1.1089	-0.0469	1.8652	-0.7935	-1.7090	0.6104	-7.4377	50.3723	-162.5702	43.7600	-126	-296	197	100651	0.56 
93.913	-1.1099	-0.0493	1.8745	-0.4883	-1.0376	1.3428	-7.2125	49.1034	-163.4326	43.7700	-129	-293	197	100650	0.56 
94.037	-1.1108	-0.0469	1.8745	-0.4883	-1.4038	1.1597	-6.9489	47.9169	-164.2126	43.7700	-130	-297	198	100650	0.56 
94.116	-1.1099	-0.0449	1.8774	-0.2441	-1.0986	0.7935	-6.6632	46.7633	-164.9432	43.7700	-127	-293	200	100650	0.56 
94.240	-1.1133	-0.0459	1.8779	-0.2441	-3.4180	1.1597	-6.3721	45.5988	-165.6244	43.7700	-129	-295	194	100650	0.56 
94.319	-1.0894	-0.0449	1.8706	0.4883	-4.2725	1.5259	-5.9601	44.3188	-166.0968	43.7900	-134	-295	196	100650	0.56 
94.444	-1.0918	-0.0371	1.8809	-0.0610	-5.0659	0.8545	-5.6525	43.0389	-166.6296	43.7700	-132	-296	198	100651	0.56 
94.553	-1.0732	-0.0493	1.8833	-0.0610	-6.1646	1.0376	-5.3558	41.6876	-167.1130	43.7800	-134	-296	200	100651	0.56 
94.662	-1.0806	-0.0400	1.8750	-0.0610	-8.6670	1.6479	-5.0262	40.3308	-167.4536	43.7800	-138	-295	196	100651	0.56 
94.756	-1.0679	-0.0425	1.8911	0.0000	-8.7891	0.7935	-4.7021	38.8641	-167.7118	43.7900	-138	-292	196	100651	0.56 
94.866	-1.0317	-0.0430	1.8765	-0.1831	-8.3618	0.7324	-4.4220	37.4359	-167.9755	43.7900	-141	-296	201	100651	0.56 
94.990	-1.0215	-0.0415	1.8765	0.2441	-7.2632	1.0376	-4.1583	36.2164	-168.2281	43.7700	-144	-297	201	100651	0.56 
95.086	-1.0044	-0.0371	1.8809	0.0000	-6.2866	1.0986	-3.9166	35.1013	-168.4204	43.7900	-148	-296	196	100651	0.56