StartTime: 2017-07-07 14:16:34.206
15steps
Time(s)	ax(g)	ay(g)	az(g)	wx(deg/s)	wy(deg/s)	wz(deg/s)	AngleX(deg)	AngleY(deg)	AngleZ(deg)	T(°)	hx	hy	hz	Pressure(Pa)	Altitude(m) 
1171.720	-1.1016	-0.0522	1.8760	0.0000	-1.9531	-28.0151	-5.8667	29.3225	157.6978	41.7000	-47	-305	271	100680	0.54 
1173.302	-1.0854	-0.0464	1.8716	1.8921	-0.7935	-23.0103	-6.8774	28.9490	155.0116	41.7300	-38	-301	269	100680	0.54 
1173.349	-1.0957	-0.0542	1.8760	1.8311	0.4272	-15.3809	-7.4268	28.8721	153.1384	41.7200	-31	-301	268	100680	0.54 
1173.411	-1.1045	-0.0547	1.8877	1.2207	-1.7700	-8.3008	-7.6135	28.8446	152.0343	41.7400	-25	-299	273	100680	0.54 
1173.474	-1.0757	-0.0352	1.8823	-1.1597	-2.7466	12.3291	-7.2839	28.7347	152.3694	41.7500	-25	-301	271	100679	0.54 
1173.536	-1.0503	-0.0942	1.8657	1.5259	-1.4038	23.0103	-6.0095	28.9215	154.8138	41.7500	-28	-301	269	100679	0.54 
1173.599	-1.2173	-0.3037	2.0361	-0.7935	13.3057	-5.7983	-3.8013	36.9690	165.6793	41.7900	-59	-300	268	100680	0.54 
1173.677	-1.2383	-0.1597	2.1812	4.3945	-8.3618	-3.6621	-4.7296	36.8152	164.0533	41.8100	-55	-301	264	100679	0.54 
1173.708	-1.3564	0.1499	1.5981	-2.6855	-0.4883	41.5649	-3.5046	36.3043	165.8386	41.8000	-62	-301	266	100679	0.54 
1173.771	-1.2383	-0.1958	1.8325	11.9629	2.2583	-0.0610	-0.5328	37.0789	169.3762	41.8000	-68	-302	265	100678	0.54 
1173.818	-1.1499	0.0723	1.5972	8.8501	9.3384	7.0190	0.5164	37.6556	168.6786	41.8100	-69	-304	269	100678	0.54 
1173.927	-1.2456	-0.0239	1.8594	3.7842	7.0801	0.1831	1.6479	38.5895	169.3872	41.7900	-70	-302	275	100678	0.54 
1174.052	-1.2163	-0.0557	2.0376	-3.8452	-5.7983	-9.7656	0.8240	37.7765	167.9919	41.8000	-70	-298	273	100678	0.54 
1174.146	-1.6475	0.0581	2.1445	10.9253	-16.1743	8.6670	0.0385	37.4579	166.0364	41.8100	-66	-301	276	100677	0.54 
1174.286	-1.3633	-0.1201	1.7017	-2.6245	13.6108	-26.9775	-0.4669	37.3645	163.9655	41.8000	-70	-298	276	100677	0.54 
1174.349	-1.2051	-0.1543	1.6772	-11.6577	3.4180	7.1411	-1.7523	37.9468	162.9877	41.8100	-62	-300	276	100676	0.54 
1174.443	-1.2202	-0.0435	1.6802	-9.5215	-1.8311	-11.4136	-3.1146	38.1500	162.2791	41.8300	-63	-296	276	100676	0.54 
1174.553	-1.2246	-0.1763	1.8882	-11.1084	-1.1597	1.7700	-4.1089	37.8040	162.0044	41.8200	-64	-292	272	100676	0.54 
1174.677	-1.2935	-0.1157	2.0229	4.3335	-7.7515	7.6904	-4.3176	36.4746	161.8890	41.8400	-65	-292	269	100675	0.54 
1174.786	-1.3696	0.1108	1.6714	-2.6245	12.3901	33.4473	-3.2190	36.3922	163.6688	41.8400	-67	-294	265	100675	0.54 
1174.849	-1.2090	-0.0967	1.6309	15.4419	-0.4883	1.6479	-1.0822	37.1887	165.8441	41.8400	-72	-295	269	100674	0.54 
1174.974	-1.2100	0.0571	1.6753	13.7329	4.8218	12.0850	0.9778	37.4689	166.3989	41.8300	-74	-296	269	100674	0.54 
1175.114	-1.2534	0.0112	1.8315	9.4604	1.2817	-9.8267	2.0050	37.7051	166.5143	41.8400	-75	-300	272	100674	0.54 
1175.193	-1.2305	0.0684	2.0391	7.5073	-4.5776	-8.6670	2.0160	37.1558	165.1520	41.8500	-76	-301	276	100674	0.54 
1175.302	-1.6558	-0.0049	2.0215	-1.4038	-52.6123	38.0249	2.9883	36.2164	166.6461	41.8600	-76	-302	282	100674	0.54 
1175.411	-1.3926	-0.1079	1.7793	-1.4648	4.9438	-42.3584	1.2469	35.3815	163.9490	41.8600	-78	-299	278	100673	0.54 
1175.505	-1.1997	-0.1489	1.7227	-17.2729	-5.1270	-3.6011	-0.7361	35.0629	161.7352	41.8700	-70	-299	277	100673	0.54 
1175.584	-1.1626	0.0361	1.6133	-12.6343	4.2114	-4.8828	-3.2190	35.1343	159.9225	41.8700	-69	-298	270	100673	0.54 
1175.708	-1.2588	-0.2144	2.0347	-8.8501	-7.1411	19.5313	-3.4167	35.6342	161.4771	41.8800	-68	-294	269	100672	0.54 
1175.927	-1.2651	-0.2637	2.2407	6.5308	-34.1797	5.6152	-2.8345	33.1567	162.9053	41.8700	-76	-293	271	100672	0.54 
1175.958	-1.3223	0.2173	1.6025	2.6245	-4.9438	17.5781	-2.7246	30.8331	163.0920	41.8800	-81	-296	265	100672	0.54 
1176.036	-1.1650	-0.0801	1.7515	14.5264	12.2681	-7.3853	-1.0876	31.7175	164.5148	41.8400	-85	-294	267	100672	0.54 
1176.333	-1.1538	-0.0205	1.6602	10.4980	15.8691	-3.0518	-0.0330	33.2117	163.8940	41.8700	-80	-297	266	100672	0.54 
1176.365	-1.2246	0.0645	1.9678	8.7280	-6.7749	-14.6484	0.6097	34.0192	163.2458	41.8800	-77	-299	272	100671	0.55 
1176.396	-1.1914	0.0342	2.0977	3.7842	-6.1035	-7.5073	0.3021	32.6514	161.9604	41.8800	-75	-300	278	100671	0.55 
1176.459	-1.3467	0.0337	1.6304	9.7656	-14.3433	7.3853	1.2085	32.5031	162.2736	41.8900	-73	-302	275	100671	0.55 
1176.568	-1.2720	0.1548	1.9336	-12.5122	7.0190	-10.4370	-0.4944	33.6292	159.9115	41.8700	-70	-301	275	100670	0.55 
1176.646	-1.1372	-0.1538	1.6104	-19.7754	-6.3477	18.5547	-1.5820	33.0249	161.4716	41.8700	-71	-297	272	100670	0.55 
1176.771	-1.1665	-0.0913	1.7793	-13.1836	8.3008	-0.3052	-3.1860	33.2556	161.4935	41.8800	-72	-295	266	100670	0.55 
1176.958	-1.1782	-0.1860	2.0708	0.5493	-7.4463	-2.1973	-3.9606	33.4808	161.6528	41.8900	-72	-293	264	100669	0.55 
1177.037	-1.7393	-0.0820	2.0854	-10.5591	4.2725	14.3433	-3.0981	32.6184	163.2074	41.8700	-77	-292	268	100669	0.55 
1177.068	-1.2793	-0.0801	1.8911	6.1035	22.5220	11.7798	-1.3184	34.2334	165.8002	41.8700	-82	-292	265	100669	0.55 
1177.177	-1.2163	0.1221	1.6401	15.8081	4.1504	-19.8364	-0.8514	35.1453	164.1193	41.8600	-77	-296	265	100669	0.55 
1177.287	-1.2070	-0.0410	1.7607	5.1880	4.6387	16.6626	0.6042	35.5408	164.8993	41.8800	-76	-296	268	100668	0.55 
1177.443	-1.2695	0.0049	2.0884	6.7139	-5.4932	-23.6816	0.5823	35.5573	163.9929	41.8900	-76	-300	271	100668	0.55 
1177.521	-1.6064	0.1763	2.2183	10.6812	-5.6152	-6.2866	-0.3900	34.2993	161.7352	41.9000	-69	-301	272	100668	0.55 
1177.584	-1.3047	-0.2012	1.7681	-9.2773	1.4648	-18.5547	-0.0659	33.2776	161.5924	41.8900	-72	-303	271	100667	0.55 
1177.771	-1.1641	-0.1675	1.6079	-19.2871	0.7324	16.1133	-1.3513	33.4808	162.1198	41.8800	-70	-299	267	100667	0.55 
1177.865	-1.1826	-0.0718	1.6865	-13.5498	6.3477	-17.3340	-3.2684	33.7280	161.5979	41.9000	-71	-298	263	100666	0.55 
1177.927	-1.2720	-0.1841	2.0425	-13.1836	9.2773	-4.2725	-4.9878	35.0134	160.6256	41.9200	-65	-291	259	100666	0.55 
1178.052	-1.2744	-0.2339	2.1167	5.0659	-19.1040	25.4517	-4.9384	33.7939	161.2299	41.9200	-66	-293	259	100666	0.55 
1178.130	-1.2236	0.1338	1.5215	6.8970	4.5166	13.6719	-3.8013	32.7283	162.4933	41.9200	-69	-292	257	100665	0.55 
1178.255	-1.1973	-0.0601	1.7969	9.5215	8.8501	-9.0332	-2.4939	33.5852	162.9327	41.9000	-73	-293	257	100665	0.55 
1178.349	-1.1606	-0.0283	1.6523	7.5684	14.9536	8.4229	-1.5106	34.6509	162.6361	41.9100	-66	-296	261	100665	0.55 
1178.444	-1.2383	-0.0176	1.9033	15.3198	9.3384	-0.1221	-0.0714	36.4032	163.2349	41.9000	-64	-299	262	100664	0.55 
1178.552	-1.2798	0.1758	1.9761	-3.5400	-5.3101	-3.7231	0.2362	35.3595	162.4493	41.9300	-59	-298	267	100664	0.55 
1178.693	-1.3940	-0.2114	1.6450	5.0659	-2.6245	11.3525	1.0822	34.7443	163.4436	41.9200	-60	-298	265	100663	0.55 
1178.771	-1.2808	0.0947	1.8545	-13.0005	-6.4087	-1.9531	-0.0055	35.1837	162.1198	41.9200	-61	-303	265	100663	0.55 
1178.881	-1.1792	-0.2578	1.7085	-21.1182	2.0752	2.8687	-1.2799	34.8376	162.9932	41.9200	-63	-299	261	100662	0.55 
1179.006	-1.2021	-0.0537	1.7485	-14.4043	2.1362	-5.0659	-3.8782	34.9750	161.3177	41.9100	-60	-294	256	100662	0.55 
1179.084	-1.2671	-0.1699	2.1919	1.0986	-16.3574	7.9346	-4.6692	34.7003	161.5045	41.9200	-57	-294	252	100662	0.55 
1179.209	-1.4819	-0.0498	1.5859	-17.4561	-13.0615	6.1646	-3.9386	33.2227	163.7457	41.9000	-68	-293	250	100662	0.55 
1179.365	-1.2495	-0.2227	1.7847	11.4136	2.2583	10.5591	-2.3676	33.9038	165.8661	41.9100	-72	-292	244	100662	0.55 
1179.443	-1.1763	0.0884	1.5840	15.9302	4.3945	-12.3291	-1.5710	34.1071	164.3939	41.9100	-69	-294	247	100661	0.55 
1179.506	-1.2197	-0.0635	1.8530	7.4463	0.7324	5.5542	-0.0385	34.4806	165.0146	41.9100	-69	-298	249	100661	0.55 
1179.600	-1.2056	-0.0024	1.9351	6.0425	-11.2915	-7.4463	0.2362	33.6292	164.2676	41.9200	-68	-302	255	100661	0.55 
1179.724	-1.3340	0.1558	2.2393	0.1221	4.0283	-9.7656	0.1099	32.9645	163.2733	41.9200	-66	-302	257	100660	0.55 
1179.849	-1.3452	-0.2065	1.6572	-0.6104	5.7983	-3.0518	0.8569	33.0524	163.7732	41.9000	-67	-308	256	100660	0.55 
1179.927	-1.2085	0.0591	1.8159	-17.4561	1.3428	10.6201	-0.9778	34.1785	162.5043	41.9300	-60	-305	252	100659	0.56 
1180.037	-1.1367	-0.2090	1.6147	-19.7144	9.7656	-3.9063	-2.5214	34.8376	163.6688	41.9400	-64	-305	248	100660	0.56 
1180.131	-1.2651	-0.1060	1.8589	-11.1694	8.7280	-13.9160	-5.4272	35.8044	161.1145	41.9300	-60	-304	243	100659	0.56 
1180.256	-1.1836	-0.1719	2.0459	-2.5635	-8.8501	-3.0518	-6.7950	35.3705	160.0928	41.9300	-51	-300	239	100659	0.56 
1180.381	-1.6187	-0.1377	1.6445	-0.0610	-13.3057	-2.6855	-6.1084	34.6564	161.0651	41.9300	-54	-301	241	100659	0.56 
1180.459	-1.1963	-0.1948	1.8472	10.4370	-0.9155	11.4746	-3.5870	34.9640	163.2513	41.9100	-59	-304	240	100659	0.56 
1180.537	-1.2197	0.0381	1.7490	16.1743	2.1362	-3.9673	-2.1039	35.1563	162.8943	41.9300	-61	-312	243	100659	0.56 
1180.678	-1.2573	-0.0522	1.8330	8.3008	3.1128	6.3477	-0.3735	35.0958	163.9764	41.9300	-57	-311	245	100658	0.56 
1180.787	-1.1768	0.0239	1.9351	3.2349	-5.7983	-10.6812	-0.3131	34.8047	163.3997	41.9400	-56	-318	248	100658	0.56 
1180.865	-1.4111	0.1113	2.1016	6.0425	2.7466	-12.5122	-0.7965	34.1949	161.7957	41.9500	-53	-319	250	100658	0.56 
1181.006	-1.5869	-0.1631	1.7739	-2.1973	-8.1177	-17.8833	-1.0327	32.8162	160.7629	41.9500	-49	-322	251	100657	0.56 
1181.084	-1.2949	-0.0991	1.7183	-12.0239	-7.0801	14.5264	-1.7963	32.5635	160.2191	41.9500	-45	-319	251	100657	0.56 
1181.178	-1.2544	-0.1646	1.7148	-8.9111	-12.0850	-11.0474	-2.8510	31.5363	160.3345	41.9700	-47	-318	249	100657	0.56 
1181.272	-1.2456	-0.0234	1.7876	-1.4038	-4.5776	-4.2725	-3.9111	31.1188	158.8129	41.9700	-43	-314	244	100657	0.56 
1181.428	-1.1709	-0.0845	1.8359	1.4648	-16.1743	19.1650	-3.2245	30.4761	160.2191	41.9600	-46	-312	243	100656	0.56 
1181.506	-1.1978	-0.1147	1.8149	3.9063	-17.5781	7.9956	-2.3071	28.7402	161.9879	41.9800	-50	-310	243	100656	0.56 
1181.615	-1.2632	-0.1226	1.8770	-1.3428	-11.6577	5.7373	-1.4667	27.7460	163.2788	42.0200	-57	-312	245	100656	0.56 
1183.256	-1.1597	-0.1001	1.8457	-1.5259	-8.7280	-12.1460	-1.7249	26.9769	163.0646	42.0100	-64	-314	241	100656	0.56 
1183.334	-1.1772	-0.0400	1.8965	1.2817	-5.2490	-5.0659	-2.0160	26.5594	162.3999	42.0300	-65	-314	244	100655	0.56 
1183.395	-1.1211	0.0322	1.8594	1.9531	-4.8218	-3.2959	-2.2083	26.2299	161.9330	42.0500	-63	-310	243	100655	0.56 
1183.477	-1.1348	-0.0859	1.8921	-0.0610	-1.0986	1.0376	-1.8787	26.2793	162.6526	42.0200	-66	-311	242	100655	0.56 
1183.509	-1.0874	-0.0347	1.8784	0.6104	-1.6479	-0.7935	-1.9116	26.4001	162.6691	42.0600	-62	-312	244	100655	0.56 
1183.571	-1.1069	-0.0591	1.8745	0.1221	-0.7324	-1.9531	-1.9501	26.6199	162.7295	42.0800	-65	-308	241	100654	0.56 
1183.649	-1.0781	-0.0605	1.8813	-1.2817	-1.1597	-3.1128	-2.5708	26.6638	164.8718	42.1300	-66	-314	241	100653	0.56 
1183.681	-1.0620	-0.0664	1.8828	-1.0986	-1.9531	0.0000	-2.6752	26.6748	164.9377	42.1400	-65	-315	242	100653	0.56