StartTime: 2017-07-07 14:16:34.206
22 steps
Time(s)	ax(g)	ay(g)	az(g)	wx(deg/s)	wy(deg/s)	wz(deg/s)	AngleX(deg)	AngleY(deg)	AngleZ(deg)	T(°)	hx	hy	hz	Pressure(Pa)	Altitude(m) 
317.891	-1.1558	-0.0122	1.8696	-0.0610	-0.6714	0.2441	-0.6757	31.2561	171.5735	42.6900	-38	-306	145	100668	0.55 
317.954	-1.1494	-0.0151	1.8735	-0.1831	-1.4038	0.6714	-0.6317	31.1462	171.6339	42.6900	-37	-305	147	100668	0.55 
318.032	-1.1543	-0.0171	1.8691	-0.1831	-1.1597	0.0000	-0.6482	31.0913	171.6284	42.6900	-40	-310	143	100669	0.55 
318.157	-1.0957	-0.0586	1.8579	0.0610	-2.1973	-3.7842	-0.7031	30.9265	171.5625	42.7100	-40	-303	147	100669	0.55 
318.251	-1.0308	0.0151	1.8936	-0.5493	-1.9531	-0.6714	-0.8130	30.3772	171.2164	42.7100	-41	-304	146	100669	0.55 
318.345	-1.0728	-0.0381	1.8521	-2.5635	11.7188	3.4790	-0.8899	30.7837	171.7273	42.7200	-38	-305	141	100668	0.55 
318.470	-1.0630	-0.0420	1.8472	-0.7324	22.5830	1.4038	-1.0052	32.2833	171.8976	42.7100	-35	-303	144	100668	0.55 
318.548	-1.1411	0.0273	1.8052	-3.8452	30.0293	8.6060	-0.8899	35.0079	172.2876	42.7300	-32	-307	146	100668	0.55 
318.673	-1.1855	0.0679	1.7725	-26.7944	56.4575	45.4102	0.0769	39.2871	175.8362	42.7300	-26	-309	142	100669	0.55 
318.751	-1.0659	-0.1733	1.7334	-4.3945	31.5552	29.5410	1.0931	42.0447	179.7034	42.7400	-31	-307	140	100668	0.55 
318.876	-1.1782	-0.0078	1.8960	24.2920	32.4707	-12.0850	1.6425	45.3406	179.1760	42.7400	-27	-308	140	100669	0.55 
319.001	-1.4814	0.2886	2.4248	15.0146	52.9175	-9.6436	2.8290	49.1089	177.1436	42.7300	-11	-313	151	100670	0.55 
319.095	-1.2603	0.1846	1.7671	-2.1973	-13.6108	18.7378	4.9988	49.1803	178.5223	42.7200	-1	-314	157	100670	0.55 
319.173	-1.7773	0.0200	1.4653	-20.6909	-16.3574	50.1709	3.8782	47.1039	179.0057	42.7300	-6	-315	150	100671	0.55 
319.363	-1.7397	-0.3975	2.9121	-14.6484	11.2305	-49.0112	4.7351	48.9935	-177.6379	42.7200	-19	-317	145	100671	0.55 
319.425	-1.0859	-0.0728	1.2910	17.0898	-46.2646	-59.2651	-5.3503	44.8956	168.6182	42.6900	-6	-313	139	100672	0.54 
319.504	-1.0469	-0.0044	0.7271	6.0425	-57.6172	42.7246	-0.9833	40.3033	169.8267	42.6400	-7	-319	138	100672	0.54 
319.614	-1.7217	-0.0820	3.6538	-5.4932	58.7158	-39.1235	-3.1805	43.4125	169.7003	42.6300	-17	-319	135	100672	0.54 
319.722	-1.9980	-0.0718	2.8188	41.3818	13.6719	63.2324	3.9496	45.6152	177.5610	42.6300	-19	-320	138	100673	0.54 
319.863	-1.3604	-0.1929	0.7461	-45.6543	-38.4521	-8.7891	6.4435	40.1550	-178.4180	42.6200	-44	-319	137	100673	0.54 
319.941	-1.7754	-0.0693	1.6050	5.3101	30.8838	-6.3477	3.0981	37.1228	178.8190	42.6100	-61	-312	126	100673	0.54 
320.035	-1.1724	0.1201	2.4619	-3.7231	20.2637	-91.7358	1.2524	38.6279	174.5728	42.6000	-57	-310	127	100674	0.54 
320.176	-0.8154	-0.1831	0.8223	8.8501	-44.7998	-38.0249	-4.5483	36.0571	166.6901	42.5800	-34	-309	123	100674	0.54 
320.269	-1.0171	-0.0005	0.6963	19.2871	-50.2930	29.9683	-0.8020	32.9480	167.6953	42.5700	-42	-309	121	100674	0.54 
320.379	-2.1729	0.9595	3.7637	24.6582	-21.5454	26.9165	-4.0210	39.4299	164.9377	42.5400	-40	-308	121	100674	0.54 
320.442	-1.8848	-0.2446	2.7217	26.8555	-11.6577	59.4482	3.6639	40.3308	176.3525	42.5400	-50	-305	120	100674	0.54 
320.582	-1.1914	-0.2632	0.7866	-37.6587	-31.9824	-45.7153	4.4550	35.6561	178.5553	42.5200	-73	-307	119	100674	0.54 
320.691	-1.7275	0.0742	2.3135	11.8408	66.7725	-11.9019	0.9668	35.2277	173.8586	42.5100	-84	-308	116	100674	0.54 
320.770	-1.3262	0.1650	2.7969	-29.4189	91.9800	-92.3462	-1.4337	38.5620	171.2769	42.5000	-68	-309	116	100674	0.54 
320.926	-0.5732	-0.0845	0.3140	36.8652	-33.1421	6.4087	-5.3394	36.5900	167.4042	42.4700	-51	-307	114	100674	0.54 
321.004	-0.9307	-0.0928	0.4248	24.1089	-40.6494	-10.0098	-1.0986	34.5355	169.0741	42.4700	-59	-317	116	100674	0.54 
321.097	-1.9771	1.1040	3.3169	16.9678	-23.1323	36.1938	-5.1526	41.3855	163.9545	42.4500	-44	-319	122	100673	0.54 
321.207	-1.7720	-0.0938	2.5459	35.0952	-49.2554	77.6978	4.1858	41.9733	176.9458	42.4600	-53	-324	127	100673	0.54 
321.301	-1.2036	-0.1294	0.7837	-34.4238	-37.1094	-36.8042	4.8505	36.7877	179.4287	42.4300	-79	-329	128	100673	0.54 
321.410	-1.7358	-0.0244	2.8462	11.7798	83.4961	18.3105	2.1973	36.9635	176.8195	42.4200	-87	-324	128	100673	0.54 
321.519	-1.6006	0.1313	2.8350	-23.6816	87.7075	-92.6514	-0.3735	39.3201	173.2214	42.4100	-80	-321	133	100673	0.54 
321.645	-0.8491	-0.1216	0.3789	29.2358	-34.3628	-31.4331	-4.9438	37.7985	167.5031	42.3900	-61	-316	133	100673	0.54 
321.723	-0.9761	-0.0449	0.3599	18.8599	-29.6631	-12.5122	-1.8292	35.3540	167.8931	42.4000	-66	-317	135	100673	0.54 
321.832	-1.2578	0.7524	2.7246	-15.6860	-82.3364	111.5112	-4.0045	42.5665	165.6519	42.3900	-51	-318	136	100673	0.54 
321.942	-1.0322	0.1094	1.3560	18.9819	-88.8672	67.0166	5.1141	40.1715	178.1433	42.3900	-68	-312	135	100673	0.54 
322.036	-1.0254	0.0039	0.9297	-21.3623	-29.4800	-39.0015	3.3838	38.0841	178.1104	42.3700	-94	-309	132	100672	0.54 
322.160	-1.7754	-0.2676	3.9556	-7.6294	91.5527	47.3022	2.8070	41.3251	178.7036	42.3700	-100	-303	128	100672	0.54 
322.239	-1.8726	0.1724	2.9917	-17.7612	31.3721	-89.3555	-3.1586	42.7478	170.4474	42.3600	-82	-306	125	100673	0.54 
322.363	-1.3579	0.2832	0.7119	36.7432	-7.8735	-13.9771	-5.3229	39.0125	165.4816	42.3400	-62	-303	129	100673	0.54 
322.535	-1.4634	0.1714	0.8633	-8.6060	73.5474	23.3154	-1.6589	37.7710	167.5854	42.3300	-65	-308	134	100672	0.54 
322.582	-0.5371	0.0835	1.9307	-18.4937	-10.3760	115.4175	-3.0707	42.4622	168.2336	42.3200	-52	-305	134	100672	0.54 
322.691	-0.8608	0.3213	0.9961	7.0801	-79.4067	43.3960	5.0262	41.5778	177.5281	42.3100	-61	-303	141	100672	0.54 
322.785	-1.0688	-0.0137	0.8813	-16.3574	-49.4995	-8.0566	3.3673	38.4412	177.7203	42.3000	-71	-300	143	100672	0.54 
322.864	-2.1553	-0.6733	4.3555	-12.5122	44.0063	26.6724	2.8949	41.6986	177.6379	42.3000	-60	-303	142	100672	0.54 
322.988	-1.6714	0.1196	2.5083	-17.8223	-21.6675	-47.4854	-3.8837	41.6547	167.2998	42.2700	-38	-298	146	100673	0.54 
323.098	-1.3682	0.2354	0.8945	49.3774	-16.6016	27.2827	-3.5321	37.7380	164.9597	42.2700	-21	-291	144	100673	0.54 
323.238	-1.6519	-0.1509	1.4712	-49.4995	124.2676	21.9116	0.8844	37.9633	168.9917	42.2600	-26	-296	151	100672	0.54 
323.332	-1.6519	-0.1509	1.4712	-16.4795	42.7246	97.7173	-1.0382	41.6107	167.9425	42.2600	-6	-292	149	100672	0.54 
323.442	-0.6440	0.2104	0.7031	-1.1597	-69.4580	49.6216	6.2677	40.8582	176.6711	42.2300	-18	-292	157	100672	0.54 
323.551	-0.9463	0.0190	0.7046	-7.6904	-41.8091	-25.6958	1.5930	37.8369	172.6447	42.2100	-33	-286	147	100672	0.54 
323.629	-2.1240	-0.4434	3.9443	-12.5122	-8.4229	26.9775	1.3293	42.5610	171.3977	42.2200	-23	-282	147	100672	0.54 
323.754	-1.9512	0.0161	2.6567	-26.0620	-20.9961	-42.5415	-4.8944	42.7313	164.0753	42.1700	-9	-278	149	100672	0.54 
323.817	-1.4434	0.0659	0.8364	30.2124	-32.2876	0.1831	-5.3119	38.4521	161.7792	42.1800	-8	-272	143	100672	0.54 
323.989	-1.8516	0.3501	1.7051	-38.4521	125.7935	-24.5972	-4.8944	38.1171	160.1862	42.1700	-9	-273	144	100672	0.54 
324.067	-0.8550	-0.4038	2.4014	-14.5264	55.4199	118.5913	-2.9224	40.9570	166.1957	42.1800	-4	-260	142	100672	0.54 
324.192	-0.8706	0.4312	0.8940	4.1504	-71.8994	62.1338	4.5319	39.7266	174.5453	42.1600	-16	-265	144	100672	0.54 
324.270	-1.0771	-0.1226	0.8540	-7.8735	-55.4199	7.0801	4.0594	36.4911	176.8304	42.1300	-26	-261	137	100671	0.55 
324.348	-1.4961	-0.7100	3.6938	-11.1694	24.7803	5.5542	4.8779	40.4132	176.9293	42.1300	-21	-259	136	100671	0.55 
324.489	-1.6641	-0.0835	2.4468	-27.8320	-5.4321	-39.3677	-4.2627	42.7753	164.8004	42.1300	1	-260	137	100671	0.55 
324.598	-1.2427	0.2554	0.7153	28.2593	-36.1328	12.6953	-5.1361	39.8145	161.7242	42.1100	16	-257	128	100671	0.55 
324.676	-1.6626	-0.0952	1.8584	-39.7339	117.0044	-13.1836	-3.1091	40.5286	162.3450	42.1100	7	-269	125	100670	0.55 
324.786	-0.8823	-0.1367	2.2676	-11.1084	41.7480	92.4072	-2.8290	43.5883	164.0424	42.1200	21	-270	128	100670	0.55 
324.880	-0.9136	0.2646	1.1255	9.0942	-55.3589	48.7061	5.6799	42.8906	172.8809	42.0900	1	-280	130	100671	0.55 
325.004	-1.0352	0.0386	0.8340	-13.3667	-37.2314	15.3809	5.3174	39.4958	174.8804	42.1000	-30	-281	125	100671	0.55 
325.083	-2.8071	-0.7114	3.7881	-12.1460	-32.7759	10.8643	5.1526	44.2969	176.7426	42.0800	-36	-277	127	100671	0.55 
325.207	-2.0967	0.0762	2.5737	-19.7144	-31.5552	-53.5278	-3.3234	43.2367	166.3715	42.0600	-25	-270	128	100671	0.55 
325.332	-1.3394	0.2114	0.8052	33.5693	-15.4419	24.5361	-2.1753	37.7490	164.6411	42.0500	-24	-271	126	100671	0.55 
325.426	-1.6489	-0.2441	2.2373	-61.2793	144.1040	-8.9722	0.3296	38.3478	166.0199	42.0500	-40	-272	127	100671	0.55 
325.567	-1.0059	-0.1860	2.4038	-4.6387	83.0078	89.7827	-0.2087	40.4681	167.3438	42.0200	-25	-272	132	100671	0.55 
325.629	-0.8125	0.2212	0.8555	9.8877	-64.8804	34.4849	6.3721	39.5837	174.7705	42.0400	-39	-274	136	100672	0.54 
325.739	-0.9360	0.0791	0.7749	-8.7891	-31.7383	8.5449	4.7571	37.5403	174.0948	42.0200	-53	-280	130	100671	0.55 
325.848	-1.7495	-0.7290	3.4658	-10.7422	17.7002	45.1660	6.4105	41.5338	176.2427	42.0100	-55	-282	135	100671	0.55 
325.926	-1.6064	0.0122	2.6353	-27.9541	-24.2920	-38.5742	1.0657	43.1323	170.3265	42.0000	-46	-284	135	100672	0.54 
326.067	-1.3130	0.3403	0.6978	41.4429	-35.4614	-4.4556	-1.9830	38.1885	164.8993	41.9900	-42	-277	133	100672	0.54 
326.161	-0.8696	0.4409	0.5288	-4.0894	-0.2441	42.1143	2.1423	35.0574	168.7994	41.9900	-55	-284	134	100671	0.55 
326.286	-0.4063	1.0708	1.4419	26.4893	-149.4141	56.8237	-1.7194	39.2047	165.5859	41.9900	-48	-281	131	100671	0.55 
326.504	-1.4805	-0.0024	2.0825	43.0908	-53.3447	-1.6479	4.0155	38.8531	171.9141	41.9800	-60	-287	134	100672	0.54 
326.645	-0.8604	-0.0571	0.6572	3.7231	-73.2422	-49.1943	3.5431	31.4923	168.5687	41.9400	-68	-296	140	100672	0.54 
326.692	-1.7983	-0.5122	2.5117	44.9219	37.4146	-107.3608	-0.6482	31.0638	158.9996	41.9600	-63	-298	145	100671	0.55 
326.754	-1.1621	0.0654	2.8193	5.1880	78.2471	-89.4165	0.9833	30.8881	158.7909	41.9600	-48	-303	159	100672	0.54 
326.833	-1.3584	-0.0503	1.7021	-27.0386	17.5171	35.2783	-0.0934	33.9532	159.5435	41.9700	-34	-303	164	100671	0.55 
326.895	-1.1167	-0.0376	1.4077	-34.1187	-8.4229	83.7402	1.2469	32.7063	167.2833	41.9600	-45	-300	156	100671	0.55 
327.051