StartTime: 2017-07-07 14:39:13.815
Time(s)	ax(g)	ay(g)	az(g)	wx(deg/s)	wy(deg/s)	wz(deg/s)	AngleX(deg)	AngleY(deg)	AngleZ(deg)	T(°)	hx	hy	hz	Pressure(Pa)	Altitude(m) 
92.881	-1.2065	-0.0254	1.8623	-23.6816	-1.8311	136.8408	20.7202	15.2380	164.2621	45.5000	110	-145	276	100671	0.55 
92.944	-1.2314	0.0776	1.9155	-21.3013	-13.5498	133.6670	20.5499	11.5356	174.2981	45.5100	108	-183	279	100671	0.55 
92.990	-1.1533	-0.0210	1.8408	-3.4180	-8.1177	4.8828	14.1943	9.4757	-156.8298	45.4300	-47	-301	253	100672	0.54 
93.084	-1.1753	-0.0596	1.8853	-0.3662	-6.5308	-15.4419	13.3429	10.6238	-159.7852	45.4100	-47	-301	253	100672	0.54 
93.116	-1.1177	-0.0176	1.8545	1.3428	-5.0659	-5.6763	12.8485	11.5466	-162.9218	45.4100	-43	-298	253	100671	0.55 
93.162	-1.1196	-0.0200	1.8809	1.1597	-1.0376	0.0610	12.5354	12.6947	-164.9982	45.4000	-43	-301	254	100671	0.55 
93.225	-1.1196	-0.0542	1.8633	0.9155	-0.8545	-2.7466	12.0850	13.9362	-166.8604	45.4000	-42	-300	249	100672	0.54 
93.303	-1.1172	-0.0347	1.8735	0.1831	-1.3428	0.1831	11.6565	14.9524	-168.6456	45.4100	-42	-297	253	100672	0.54 
93.428	-1.1099	-0.0493	1.8774	-1.0986	-0.0610	0.1221	11.1127	15.9851	-170.1508	45.4200	-40	-300	249	100672	0.54 
93.522	-1.1060	-0.0366	1.8794	-0.8545	-0.1831	1.7700	10.5634	16.9739	-171.5076	45.4200	-42	-300	251	100672	0.54 
93.616	-1.0869	-0.0610	1.8843	0.2441	-3.9063	-0.5493	10.0525	17.5891	-172.8699	45.4300	-41	-298	255	100672	0.54 
93.725	-1.0728	-0.0508	1.8643	0.8545	-2.6855	-0.1831	9.5856	18.1274	-174.3420	45.4300	-39	-301	252	100672	0.54 
93.819	-1.0420	-0.0859	1.8569	1.7700	2.8687	-2.6855	9.1516	18.8306	-175.6989	45.4300	-42	-299	251	100672	0.54 
93.928	-1.0605	-0.0659	1.8716	2.0752	11.9629	-5.2490	8.6957	20.5060	-177.2479	45.4400	-38	-302	253	100671	0.55 
94.100	-1.2139	0.0024	1.8242	-0.6714	6.2866	3.2959	8.3002	22.2968	-178.5498	45.4600	-32	-303	258	100671	0.55 
94.178	-1.0273	-0.0454	2.0605	-16.6626	8.4229	31.9824	8.0914	23.4229	-176.7426	45.4600	-36	-301	259	100672	0.54 
94.225	-0.9829	-0.1934	1.8022	1.9531	4.4556	17.2119	7.7069	23.0823	-175.7648	45.4600	-44	-304	251	100672	0.54 
94.319	-1.0083	0.0825	1.8242	11.9019	9.1553	-14.4653	7.7344	24.7522	-177.7368	45.4500	-42	-302	251	100672	0.54 
94.428	-1.0420	-0.0088	1.8286	0.0610	6.4697	-2.3193	7.9211	26.0321	-178.9398	45.4700	-39	-303	256	100672	0.54 
94.522	-1.0449	-0.0313	2.0825	7.0190	7.9346	-19.5923	6.9159	26.7737	178.6926	45.4700	-36	-303	259	100673	0.54 
94.772	-1.4736	0.1816	2.4971	4.6387	25.3296	-0.1221	6.9818	28.4601	176.9623	45.4700	-32	-305	261	100673	0.54 
94.850	-1.3525	-0.3022	1.4702	-6.8359	29.4800	-9.4604	7.0752	29.8224	176.2592	45.4500	-34	-304	260	100673	0.54 
94.913	-1.2544	-0.0747	1.7959	-15.8081	1.4648	14.0991	5.5591	31.9482	174.7705	45.4400	-30	-301	263	100673	0.54 
94.959	-1.1919	-0.0938	1.8193	-14.4043	17.0288	4.1504	4.1528	33.0414	174.9298	45.4400	-33	-298	258	100673	0.54 
95.054	-1.2290	-0.0967	1.9678	-19.2871	29.3579	1.6479	2.4280	35.4089	174.4080	45.4400	-31	-299	257	100672	0.54 
95.163	-1.3467	-0.3555	2.0146	4.0894	-18.6768	17.7002	1.6040	34.9640	174.1333	45.4300	-32	-294	258	100672	0.54 
95.257	-1.4082	0.1660	1.6157	15.0757	16.7847	18.4326	2.5653	34.6729	173.9026	45.4200	-40	-295	253	100672	0.54 
95.381	-1.2480	0.0176	1.6523	6.7139	15.5640	-14.1602	3.6200	35.5627	173.3643	45.4100	-44	-299	255	100672	0.54 
95.585	-1.3457	-0.0283	1.9004	4.4556	20.0195	11.2305	4.1034	37.0789	172.6172	45.4000	-39	-298	262	100671	0.55 
95.663	-1.2925	-0.0313	2.0845	3.8452	-18.6768	-20.7520	3.6310	37.1887	171.0846	45.4000	-43	-300	264	100672	0.54 
95.725	-1.7178	0.0654	1.7095	19.5923	-21.1182	-4.0894	3.6859	35.1453	168.9423	45.4000	-37	-303	264	100671	0.55 
95.803	-1.3315	0.0913	1.8193	-12.3291	6.8970	3.0518	3.8562	35.9473	168.0469	45.3900	-42	-302	267	100671	0.55 
95.928	-1.2163	-0.2295	1.6401	-22.0947	12.3291	20.5078	2.8894	36.7822	169.6729	45.3700	-43	-298	263	100671	0.55 
96.006	-1.2876	-0.0635	1.8066	-15.1978	5.3711	-8.6060	0.5933	37.3425	168.5303	45.3800	-47	-294	262	100670	0.55 
96.163	-1.3281	-0.2124	2.1431	4.6997	-23.9258	10.1929	0.1703	36.2494	168.8324	45.3900	-51	-291	259	100670	0.55 
96.225	-1.3481	0.1509	1.6753	0.6714	9.2163	18.4937	1.3568	36.0571	170.7001	45.3800	-56	-294	257	100670	0.55 
96.366	-1.2729	-0.0444	1.7056	11.5967	11.7188	-1.8921	2.2742	36.4471	170.8759	45.3500	-61	-292	254	100670	0.55 
96.444	-1.2729	-0.0771	1.7524	11.9019	11.3525	6.1646	3.5980	37.4139	170.7440	45.3400	-60	-293	259	100669	0.55 
96.538	-1.3262	0.0093	1.9932	15.4419	-5.4321	-20.6909	4.1309	38.0951	169.1455	45.3500	-56	-296	264	100669	0.55 
96.647	-1.6411	0.0273	2.0317	12.2681	-14.3433	-6.9580	3.7299	36.7712	167.0856	45.3400	-52	-298	264	100669	0.55 
96.757	-1.3906	-0.1401	1.7700	-2.3193	11.5967	-17.3340	4.6088	36.1670	166.2781	45.3200	-50	-299	267	100668	0.55 
96.866	-1.2422	-0.0796	1.6484	-28.0762	4.5776	21.9116	2.8345	36.3153	166.6956	45.3200	-49	-298	265	100668	0.55 
96.975	-1.2588	-0.0947	1.6772	-24.5972	16.6626	-14.2212	0.2802	37.3700	166.8549	45.2900	-53	-297	260	100668	0.55 
97.069	-1.3389	-0.3364	2.0410	-9.3994	-15.3198	-3.7842	-2.4994	37.3810	165.1849	45.2900	-54	-292	258	100668	0.55 
97.382	-1.7471	-0.0547	1.6763	-4.0283	-19.1040	6.6528	-2.4829	35.0299	164.8334	45.3000	-54	-289	249	100668	0.55 
97.444	-1.3203	-0.1665	1.7690	7.9346	-10.9863	12.6343	-0.3131	34.7278	167.1570	45.3000	-64	-290	252	100667	0.55 
97.460	-1.2847	0.1460	1.7192	9.8877	-15.3809	-2.3804	0.0275	34.1730	165.4596	45.2800	-64	-294	248	100667	0.55 
97.538	-1.1992	-0.1143	1.7515	4.6387	-8.7891	11.2305	1.3458	32.3328	166.6516	45.2900	-67	-293	250	100666	0.55 
97.772	-1.1948	0.0244	1.9722	13.0615	-2.8687	-15.2588	1.3678	32.3602	165.1025	45.2900	-67	-295	250	100666	0.55 
97.835	-1.5547	0.2080	2.3438	0.4883	6.5308	2.0752	1.3074	32.4152	164.2456	45.2900	-66	-297	256	100666	0.55 
97.897	-1.2905	-0.2104	1.6465	-4.3945	9.7046	-14.0381	2.2083	31.8988	165.2893	45.2900	-67	-298	256	100666	0.55 
97.975	-1.2134	-0.0708	1.6499	-20.6909	-2.3804	24.8413	0.9448	32.5745	165.4980	45.3000	-66	-296	254	100665	0.55 
98.022	-1.1855	-0.1943	1.6685	-17.2729	8.7280	-23.9258	-1.4337	33.3160	165.2728	45.2900	-71	-287	245	100665	0.55 
98.101	-1.2217	-0.1875	1.9443	-7.1411	14.4653	-8.4839	-3.7408	34.6179	162.7844	45.2700	-64	-289	245	100664	0.55 
98.225	-1.2964	-0.0679	2.1738	7.8125	-14.7095	3.7231	-3.9496	33.1897	161.6309	45.3000	-60	-286	242	100664	0.55 
98.320	-1.0967	0.1680	1.4639	0.0000	6.9580	39.3066	-2.3456	32.6733	164.2236	45.2800	-63	-291	245	100663	0.55 
98.444	-1.1997	-0.0527	1.7314	6.7139	-1.5259	-1.8311	-0.7416	33.4094	165.8496	45.2700	-69	-292	245	100663	0.55 
98.600	-1.1777	0.0771	1.7700	4.5166	6.2256	25.3906	0.5493	33.8818	166.4209	45.2900	-69	-294	247	100662	0.55 
98.632	-1.3267	-0.0103	2.0762	11.5967	4.9438	-7.3853	2.0874	34.8541	167.7612	45.2800	-70	-296	250	100662	0.55 
98.757	-1.3784	0.0781	1.8955	0.5493	-1.8921	-28.9307	1.3733	33.9423	165.5310	45.2800	-66	-295	249	100662	0.55 
98.866	-1.3584	-0.2676	1.8794	-4.1504	11.9019	-2.4414	1.3733	34.7498	163.8940	45.2700	-60	-298	248	100661	0.55 
98.961	-1.2485	-0.1040	1.7886	-16.7236	-2.8076	17.6392	0.0000	34.4861	164.2017	45.2600	-59	-293	250	100661	0.55 
99.070	-1.1748	-0.0767	1.6113	-11.4136	7.6294	-19.1040	-1.5985	34.9915	163.9105	45.2500	-60	-292	245	100661	0.55 
99.226	-1.3184	-0.2051	1.9854	-14.2822	14.0381	-4.5776	-3.9441	36.3538	162.2845	45.2600	-57	-289	244	100660	0.55 
99.288	-1.6157	-0.2339	2.2368	0.3052	-9.8267	26.9165	-3.0103	35.5353	163.4985	45.2700	-53	-289	241	100659	0.56 
99.367	-1.4536	0.1392	1.9448	10.9863	12.5732	33.5083	-1.5326	35.4858	164.9707	45.2300	-60	-289	240	100659	0.56 
99.491	-1.2837	0.0122	1.7207	6.2256	19.1040	-16.7847	-0.8624	36.4362	164.7180	45.2500	-60	-290	241	100659	0.56 
99.632	-1.2217	-0.1035	1.7041	13.0005	23.1934	9.0942	0.1813	38.1610	164.4598	45.2400	-54	-294	244	100659	0.56 
99.710	-1.3643	0.0176	2.0400	22.3389	-10.3149	-19.5313	1.4447	38.9355	163.6194	45.2300	-48	-299	250	100659	0.56 
99.835	-1.6860	0.0098	1.6221	25.3906	-37.7197	-10.0708	1.3129	37.5787	160.5377	45.2300	-44	-301	251	100659	0.56 
99.913	-1.4043	0.1450	1.8281	-14.9536	-5.1270	-4.2114	0.6152	37.5128	158.7909	45.2200	-42	-305	257	100658	0.56 
100.022	-1.2280	-0.2607	1.5103	-26.9775	11.2305	11.5356	-0.4944	37.5018	160.8398	45.2100	-39	-297	250	100658	0.56 
100.147	-1.3398	-0.0913	1.8989	-17.2119	30.7617	-19.9585	-4.3671	39.2432	158.2745	45.2300	-37	-293	244	100658	0.56 
100.241	-1.3315	-0.2334	2.2212	9.1553	-12.6343	-17.7002	-6.4545	39.0784	156.2860	45.2300	-32	-290	242	100657	0.56 
100.351	-1.3525	0.1104	1.4146	3.7842	-6.1035	6.0425	-6.2622	37.9358	155.8850	45.2200	-29	-291	238	100657	0.56 
100.460	-1.2437	-0.0928	1.6162	21.9727	4.4556	-8.5449	-3.9221	38.6279	157.0001	45.2100	-30	-294	239	100657	0.56 
100.554	-1.2646	0.0278	1.5571	12.8784	5.4932	14.4653	-1.9006	39.8199	157.5330	45.2100	-22	-297	243	100656	0.56 
100.882	-1.4565	-0.0713	2.0840	17.8223	10.4370	-7.3853	0.4010	41.3196	158.8623	45.2100	-28	-303	250	100656	0.56 
100.898	-1.6821	0.2471	2.2397	0.8545	3.3569	-20.0195	0.3076	40.5725	156.6870	45.2000	-21	-306	254	100656	0.56 
100.944	-1.4028	-0.3105	1.5938	-9.3384	5.5542	-8.4229	0.9174	39.1553	157.4670	45.2100	-21	-309	251	100656	0.56 
101.007	-1.2178	-0.0337	1.5264	-24.9634	-0.5493	17.4561	-1.8347	39.0179	156.5057	45.1800	-22	-307	245	100655	0.56 
101.085	-1.2559	-0.1606	1.5376	-17.3950	5.1880	-9.2773	-3.2684	39.7705	157.5000	45.1800	-25	-305	237	100655	0.56 
101.179	-1.4375	-0.2207	2.1997	-7.8735	-3.7842	-5.4321	-6.0919	40.0507	155.1324	45.2000	-19	-304	233	100654	0.56 
101.304	-1.9390	-0.0435	1.8613	-11.0474	-9.2163	6.8359	-5.5481	38.2489	155.9290	45.1800	-19	-302	230	100654	0.56 
101.383	-1.3643	-0.2378	1.7705	11.3525	-13.2446	-3.4790	-4.2462	36.5845	157.2913	45.1500	-29	-308	230	100654	0.56 
101.523	-1.2153	0.1006	1.5210	20.6299	-5.9814	3.0518	-2.7466	35.7935	156.3849	45.1600	-27	-310	230	100653	0.56 
101.616	-1.2383	-0.0107	1.6357	10.6201	14.7705	-1.2817	-0.5603	36.4142	157.2968	45.1500	-25	-318	240	100652	0.56 
101.710	-1.2764	-0.0840	1.9507	11.5967	20.1416	-9.3994	0.0604	38.1665	156.9067	45.1700	-22	-320	240	100652	0.56 
101.820	-1.6011	0.1909	2.2969	7.6904	5.4932	-10.4370	-0.6042	38.3698	154.2261	45.1700	-7	-322	247	100651	0.56 
101.929	-1.7520	-0.2251	1.8154	2.4414	-11.8408	-2.3193	0.8459	36.7053	155.1050	45.1700	-4	-327	253	100651	0.56 
102.070	-1.3481	0.0098	1.5640	-9.3994	-19.8975	-2.0752	-0.3406	34.7498	153.2373	45.1700	-5	-325	250	100651	0.56 
103.914