StartTime: 2017-07-14 14:15:41.614
Time(s)	ax(g)	ay(g)	az(g)	wx(deg/s)	wy(deg/s)	wz(deg/s)	AngleX(deg)	AngleY(deg)	AngleZ(deg)	T(°)	hx	hy	hz	Pressure(Pa)	Altitude(m) 
1799.455	-0.3472	-0.0156	0.9663	-0.3662	-0.4272	0.2441	-1.4117	19.0173	160.9222	45.3200	116	-178	-139	100527	0.67 
1799.487	-0.3418	-0.0181	0.9673	-0.4272	-0.1831	0.7935	-1.3898	19.0118	160.9662	45.3200	121	-176	-135	100528	0.67 
1799.565	-0.3462	-0.0186	0.9722	-0.3662	-0.1831	0.7324	-1.4008	18.7976	161.1365	45.3300	112	-179	-137	100529	0.66 
1799.659	-0.3408	-0.0229	0.9653	-0.4883	-0.2441	0.2441	-1.4117	18.8306	161.1584	45.3300	114	-177	-137	100529	0.66 
1799.690	-0.3271	-0.0171	0.9624	-0.7935	0.0610	0.7324	-1.4612	18.8745	161.0980	45.3600	118	-178	-139	100529	0.66 
1799.752	-0.3218	-0.0059	0.9575	-0.6104	0.0610	0.7935	-1.4117	18.9514	161.1859	45.3400	117	-176	-138	100529	0.66 
1799.846	-0.3320	-0.0083	0.9678	-1.4038	2.0752	0.1831	-1.4392	19.1986	161.1475	45.3400	116	-176	-137	100528	0.66 
1799.862	-0.3662	0.0103	1.0225	-1.8311	6.7749	5.3101	-1.3129	19.6875	161.5375	45.3600	117	-175	-137	100529	0.66 
1799.909	-0.3340	0.0063	0.9756	-3.7842	-3.2959	0.0000	-1.4063	19.6051	161.7407	45.3500	118	-175	-136	100528	0.66 
1800.049	-0.3467	0.0103	0.9346	-3.4180	-6.2866	3.1128	-1.5765	19.3140	161.9604	45.3500	111	-174	-140	100528	0.66 
1800.127	-0.4072	-0.0996	0.8916	4.0894	1.2817	-9.7046	-1.7908	19.4128	161.7517	45.3600	113	-174	-138	100529	0.66 
1800.284	-0.2139	0.0361	1.0708	-4.3335	-6.8359	-0.5493	-1.9281	19.1711	160.5981	45.3800	115	-175	-139	100528	0.67 
1800.346	-0.2930	-0.1274	0.9316	-12.6953	0.9766	11.4136	-2.6532	18.4845	161.4496	45.3900	114	-175	-141	100528	0.66 
1800.440	-0.2173	-0.1680	0.9365	-0.6104	-10.3149	-0.7935	-3.5266	17.8473	161.5430	45.3800	111	-171	-145	100528	0.67 
1800.534	-0.1235	-0.0293	0.8984	12.6343	-10.3760	11.9019	-2.7356	16.5839	162.0044	45.4000	105	-173	-147	100528	0.66 
1800.737	-0.2637	-0.1411	1.0073	17.3340	20.3247	15.6860	-1.2524	16.9409	162.9767	45.3800	103	-177	-142	100528	0.66 
1800.784	-0.1631	-0.0430	0.7876	6.3477	-1.2817	2.8687	0.2802	16.4026	163.4106	45.3800	93	-180	-135	100528	0.66 
1800.877	-0.7710	-0.1196	1.4526	-3.8452	-12.4512	-3.9673	-0.0879	15.9686	164.2621	45.3900	84	-185	-130	100528	0.66 
1800.956	-0.3867	0.1738	0.8950	17.3340	1.7700	1.4648	-0.1154	16.5454	164.0918	45.4000	84	-184	-137	100529	0.66 
1801.143	-0.4111	0.1299	0.9624	-1.7700	7.2632	6.2256	0.7141	16.6718	164.1193	45.3900	86	-188	-135	100529	0.66 
1801.174	-0.2954	0.0034	0.9355	-8.7280	-4.1504	1.1597	0.3406	17.6221	164.6191	45.3800	84	-186	-136	100529	0.66 
1801.268	-0.2314	0.0010	0.9668	-23.3154	-4.6387	13.0005	-0.6976	16.6882	166.3660	45.4000	77	-183	-143	100529	0.66 
1801.347	-0.0669	0.1802	0.7759	-23.2544	-20.1416	-3.5400	-2.8674	14.2328	165.1575	45.3800	72	-179	-148	100530	0.66 
1801.534	-0.2715	-0.0493	0.7661	-14.8315	-25.7568	5.9814	-3.8013	13.2825	166.7670	45.4000	60	-175	-157	100529	0.66 
1801.565	-0.5439	0.0420	1.1089	4.7607	-11.4746	30.4565	-3.2574	14.1449	168.8544	45.3900	51	-173	-154	100530	0.66 
1801.674	-0.0752	-0.2197	1.0508	16.9678	-8.3008	-18.0664	-2.7411	14.8206	170.0134	45.4100	48	-177	-156	100530	0.66 
1801.784	-0.4028	0.0537	1.0513	12.5732	33.9966	-1.0376	-1.1975	16.6937	168.6786	45.3800	55	-182	-149	100530	0.66 
1801.878	-0.1294	-0.1504	0.7988	17.3950	-4.2725	-14.4043	-0.1263	16.1664	168.0304	45.3900	61	-187	-144	100530	0.66 
1801.941	-0.0664	0.0137	0.5562	2.5635	-25.4517	8.5449	0.4999	14.7107	168.1567	45.3900	63	-190	-135	100531	0.66 
1802.096	-0.2930	0.0479	0.9375	2.4414	-19.7144	-8.9722	-0.3021	13.5736	167.3273	45.4000	56	-190	-134	100531	0.66 
1802.174	-0.5220	0.0010	1.1533	-11.4746	4.2114	-26.6113	-0.8514	12.7112	167.3547	45.3900	54	-191	-138	100531	0.66 
1802.284	-0.2383	0.2158	1.1826	-1.5259	-16.3574	-10.4370	-0.9998	13.0133	166.1792	45.4000	57	-187	-137	100531	0.66 
1802.393	-0.1323	0.0142	0.8442	-2.0752	18.0054	10.8643	-0.9723	12.4695	166.2781	45.4000	57	-187	-134	100532	0.66 
1802.487	-0.1851	-0.0703	0.9512	-16.1743	-11.5356	-3.3569	-1.8018	13.4528	168.0249	45.3800	51	-186	-135	100532	0.66 
1802.581	0.0122	0.2280	0.7051	-10.8032	-14.5874	8.7280	-3.1256	10.7281	167.8162	45.4200	48	-184	-142	100532	0.66 
1802.690	-0.3525	-0.1235	1.1909	-1.4648	-0.9155	-5.6152	-3.7299	11.0522	169.1675	45.4200	45	-180	-143	100532	0.66 
1802.784	-0.6826	-0.1895	1.3350	3.3569	11.7798	18.3105	-2.9224	12.8320	171.7603	45.4100	41	-181	-141	100533	0.66 
1802.925	0.0400	0.0317	0.6689	-7.2021	-20.6299	9.4604	-3.7354	11.3654	171.6943	45.4100	42	-184	-143	100533	0.66 
1802.972	-0.4336	-0.2783	1.1733	2.0142	23.0713	11.5356	-3.6639	14.7437	174.2377	45.4100	40	-179	-143	100533	0.66 
1803.096	-0.0938	0.0400	0.8262	15.4419	13.3057	-10.0098	-2.7356	13.6395	173.4357	45.4100	41	-182	-141	100534	0.66 
1803.206	-0.0986	-0.3013	0.6982	12.6953	-24.9023	-2.0142	-1.1261	12.9913	173.8861	45.4200	42	-192	-135	100534	0.66 
1803.331	-0.3311	0.1782	0.9312	7.6294	0.9155	16.0522	-0.3296	12.0575	173.2379	45.4300	39	-189	-124	100534	0.66 
1803.393	-0.5664	0.1450	1.1528	10.9253	18.0054	-38.0859	0.0220	14.9194	173.4192	45.4200	44	-191	-117	100535	0.66 
1803.503	-0.4927	0.2559	1.6260	-8.3008	11.5356	11.8408	1.3184	16.1334	173.6169	45.4300	54	-191	-113	100535	0.66 
1803.596	0.0010	-0.0020	0.6152	-18.1274	3.8452	22.5220	-0.3680	13.5571	173.6993	45.4200	50	-192	-118	100535	0.66 
1803.753	-0.1509	0.0059	0.7573	-20.9961	-25.3906	3.6621	-1.8732	13.8812	175.4297	45.4000	43	-188	-124	100535	0.66 
1803.815	-0.3389	-0.0234	0.9526	-17.2119	23.3765	38.3301	-3.0872	12.7881	176.5778	45.4400	39	-183	-131	100535	0.66 
1803.925	-0.7495	-0.0195	1.3286	5.9204	18.4326	0.7324	-3.3728	13.4308	177.2260	45.4200	37	-177	-134	100535	0.66 
1804.018	-0.2056	-0.1958	1.2666	9.2163	-0.6104	15.0757	-2.0544	15.1172	179.1046	45.4400	38	-182	-130	100536	0.66 
1804.175	-0.2422	-0.1855	0.9712	7.5684	5.4321	-33.0811	-2.4445	14.5789	178.0884	45.4200	38	-182	-126	100536	0.66 
1804.237	-0.1738	-0.0044	0.8247	13.2446	-9.9487	0.3052	-1.6315	14.7601	176.5118	45.4200	44	-183	-124	100536	0.66 
1804.331	-0.1680	-0.1167	0.8037	5.1880	-42.9688	0.9766	-0.9338	12.7167	175.9186	45.4100	50	-184	-119	100537	0.66 
1804.440	-0.3506	0.0156	0.8691	7.8735	-8.6060	3.4180	-1.2030	10.3931	174.5673	45.4100	52	-189	-119	100537	0.66 
1804.550	-0.3296	0.0166	1.1113	3.5400	-23.6206	-6.5918	-0.2856	10.5194	176.5283	45.4200	45	-187	-113	100537	0.66 
1804.628	-0.3594	0.2051	1.4243	-12.3901	-0.3052	-12.3291	-0.2527	10.9918	174.1553	45.4100	48	-188	-108	100537	0.66 
1804.737	-0.0381	-0.1016	0.5674	-1.7700	14.2822	9.2773	-0.4999	10.2448	174.1333	45.4300	51	-184	-113	100537	0.66 
1804.832	-0.1421	0.1816	0.8687	-8.8501	-25.8179	-28.7476	-1.3678	12.1289	173.2599	45.4200	55	-187	-108	100537	0.66 
1804.987	-0.1270	0.0269	0.9492	-20.7520	31.3721	22.3999	-2.5873	10.4810	173.0017	45.4300	54	-181	-119	100538	0.66 
1805.050	-0.3511	-0.1772	1.5195	9.8877	-5.3101	-7.5073	-3.2794	10.8765	173.8312	45.4100	53	-178	-121	100538	0.66 
1805.143	-0.5649	-0.2070	1.2637	7.4463	24.4751	2.9297	-2.5049	12.0135	175.5560	45.4300	49	-178	-122	100539	0.66 
1805.222	-0.1836	-0.0405	0.7046	-9.6436	6.2866	13.2446	-2.8070	13.0902	176.2866	45.4100	53	-180	-119	100538	0.66 
1805.362	-0.2559	-0.2192	1.1597	20.8740	11.6577	-12.6343	-3.0157	14.8260	175.3693	45.4000	51	-178	-117	100539	0.66 
1805.425	-0.1626	-0.0664	0.8633	16.7847	4.9438	-12.5732	-1.1755	15.1776	173.8477	45.4100	60	-177	-110	100539	0.66 
1805.597	-0.3027	-0.1147	0.7632	15.1978	0.9766	2.5635	-0.0549	14.2767	172.9138	45.4200	63	-181	-105	100540	0.66 
1805.661	-0.3862	0.2148	1.2788	-3.4180	-2.0142	8.5449	0.1428	13.7933	172.8864	45.3900	62	-187	-100	100540	0.66 
1805.763	-0.3926	0.1777	1.1538	-1.8921	6.8359	-8.6670	-0.1813	14.3207	172.3480	45.4100	64	-183	-98	100541	0.65 
1805.873	-0.2568	0.1187	1.0879	-10.8032	2.3804	-6.4087	-0.0055	14.3207	172.0679	45.4100	65	-181	-95	100541	0.65 
1805.998	-0.2231	-0.0205	0.8896	-13.7939	7.8735	10.5591	-0.6757	14.4415	172.3041	45.4300	68	-181	-96	100541	0.65 
1806.076	-0.1045	-0.0088	0.6411	-0.6104	-26.1841	-20.5688	-1.9830	13.0518	170.9802	45.4300	65	-179	-99	100542	0.65 
1806.263	-0.1255	0.1260	0.9165	-7.8125	-3.6621	0.9766	-1.8237	11.7554	169.8596	45.4300	65	-176	-102	100543	0.65 
1806.279	-0.5161	-0.3066	1.1895	2.0752	-9.6436	-3.5400	-1.5985	11.6510	170.3485	45.4200	62	-172	-98	100542	0.65 
1806.373	-0.1450	0.1934	1.0420	-6.8970	0.6714	6.3477	-1.6425	12.3486	168.8434	45.4000	69	-172	-96	100542	0.65 
1806.467	-0.2710	-0.2007	0.9653	1.8921	22.3999	10.7422	-2.3236	14.2603	170.1727	45.4100	67	-170	-99	100543	0.65 
1806.607	-0.1309	-0.0513	0.8149	12.2681	8.2397	-20.5078	-2.0874	14.4305	168.4589	45.3900	72	-173	-95	100543	0.65 
1806.685	-0.1621	-0.1372	0.6973	8.1177	-10.6812	23.7427	-0.7306	14.1394	169.4421	45.4100	76	-172	-90	100543	0.65 
1806.779	-0.5376	0.1729	1.3584	-12.0239	2.6855	9.1553	-1.1755	13.3374	169.1895	45.4200	71	-171	-84	100543	0.65 
1806.858	-0.4429	-0.0166	1.2813	9.2163	0.8545	-29.9683	-1.9006	14.8041	167.0471	45.4300	74	-173	-85	100543	0.65 
1806.998	-0.1436	0.1284	0.8042	-3.3569	-9.3994	6.5308	-1.0876	13.6450	165.9210	45.4100	78	-174	-80	100544	0.65 
1807.077	-0.3193	0.0732	1.0708	-14.3433	12.2070	17.9443	-0.8899	14.6667	167.5800	45.4100	81	-175	-79	100544	0.65 
1807.201	-0.0562	0.0864	0.6392	-15.6860	-32.1655	1.3428	-2.2137	12.5244	166.9318	45.4300	77	-168	-81	100544	0.65 
1807.295	-0.2651	-0.0347	0.9087	-13.6108	-9.2773	30.3955	-2.3511	12.0300	169.0631	45.4200	72	-166	-87	100544	0.65 
1807.404	-0.4785	-0.1528	1.1162	0.8545	-1.4648	8.6060	-2.0709	11.8652	170.5682	45.4200	64	-167	-87	100545	0.65 
1807.483	-0.2837	-0.0757	1.3091	3.9063	3.5400	18.6157	-2.1753	12.7496	170.4309	45.4100	62	-167	-81	100545	0.65 
1807.623	-0.2202	-0.1309	0.8018	-3.5400	24.6582	6.4697	-2.6752	14.2767	171.9525	45.4200	61	-171	-82	100545	0.65 
1807.701	-0.2100	-0.0923	0.8901	10.9863	4.8828	-2.9907	-2.8180	15.3534	170.8044	45.4000	66	-169	-80	100546	0.65 
1807.811	-0.1147	-0.1533	0.6616	9.3994	-9.2773	15.8691	-1.3788	13.7988	171.6724	45.4100	68	-168	-73	100546	0.65 
1807.920	-0.6465	0.2793	1.3169	-8.7891	23.2544	20.5078	-1.0052	14.0680	172.1667	45.4100	64	-166	-68	100546	0.65 
1808.029	-0.3071	-0.1260	1.1094	6.8970	2.2583	-34.6069	-1.1920	15.0128	171.3263	45.4200	64	-167	-66	100547	0.65 
1808.186	-0.3179	0.2397	1.1089	3.2959	-0.3052	3.6621	-0.8240	15.3204	169.1016	45.4100	75	-168	-57	100547	0.65 
1808.217	-0.1104	0.0903	0.7124	-16.2354	-15.8081	17.3950	-0.7141	14.7382	169.3433	45.4300	80	-170	-58	100547	0.65 
1808.326	-0.1729	-0.0029	0.8413	-25.6348	-11.9629	3.4790	-2.3950	13.4747	170.3540	45.4100	75	-167	-63	100547	0.65 
1808.436	-0.2544	-0.1079	0.9072	-8.0566	-13.6719	2.7466	-3.5101	12.0135	170.1233	45.4100	75	-166	-69	100547	0.65 
1808.514	-0.2461	-0.2017	1.1597	-1.4648	-35.4614	26.3672	-2.6257	11.4807	171.8042	45.4100	74	-164	-65	100548	0.65 
1808.639	-0.4600	-0.0718	1.1577	7.9346	20.6299	-9.1553	-1.7084	13.5352	170.9363	45.4000	74	-166	-64	100548	0.65 
1808.733	-0.3008	-0.0591	0.8467	-4.2114	17.8223	-4.0283	-1.9006	13.8428	168.9862	45.4000	82	-166	-61	100548	0.65 
1808.826	-0.3564	-0.0273	0.9751	-7.8125	8.9722	3.7231	-2.8455	15.8038	168.5083	45.4100	87	-166	-59	100548	0.65 
1808.905	-0.2705	-0.2490	0.9082	6.8970	-21.9727	-2.2583	-3.1586	15.5511	168.2281	45.4100	88	-166	-60	100549	0.65 
1809.029	-0.4819	0.3813	1.1323	3.3569	-6.3477	-7.8735	-2.4335	17.1167	167.9370	45.4100	90	-169	-61	100548	0.65 
1809.124	-0.3809	-0.3086	1.0981	-10.8032	31.6772	13.0005	-3.6694	17.4188	166.6901	45.4200	89	-165	-61	100549	0.65 
1809.264	-0.2729	-0.0068	0.8359	-1.4038	-4.4556	-13.6108	-3.0432	17.9132	166.7010	45.4000	94	-164	-61	100549	0.65 
1809.342	-0.3799	-0.0181	1.0522	-0.0610	-1.2817	10.8643	-2.8894	18.6658	166.3660	45.4100	92	-163	-61	100549	0.65 
1809.436	-0.3262	0.0000	0.9600	-1.4648	1.0986	8.1177	-2.8180	18.4131	166.3000	45.4100	93	-164	-62	100549	0.65 
1809.545	-0.3369	-0.0796	0.9771	-1.2817	1.8921	3.1128	-2.6422	18.6658	166.7065	45.4100	92	-160	-62	100549	0.65 
1809.670	-0.3306	-0.0137	0.9678	0.2441	1.2817	1.5869	-2.5818	18.7646	166.2067	45.4200	91	-164	-61	100550	0.65 
1809.748	-0.3345	-0.0366	0.9736	0.1831	0.9766	1.4648	-2.4664	18.8965	165.9045	45.4300	90	-166	-60	100550	0.65 
1809.889	-0.3501	-0.0288	0.9722	1.0376	0.9766	-1.0376	-2.4005	19.0503	165.4431	45.4200	91	-167	-61	100550	0.65 
1809.951	-0.3599	-0.0332	0.9688	1.7700	3.4180	-4.3945	-2.3181	19.2316	164.7400	45.4300	92	-168	-61	100550	0.65 
1810.061	-0.3447	-0.0122	0.9595	1.1597	1.8921	-3.7231	-2.2028	19.3579	163.8556	45.4500	95	-166	-57	100551	0.65 
1810.140	-0.3672	-0.0083	0.9746	0.0610	-1.8921	0.0000	-2.1259	19.5721	163.2294	45.4500	95	-166	-57	100551	0.65 
1810.312	-0.3525	-0.0332	0.9731	-0.4883	0.9155	-0.6714	-2.0929	19.5557	162.8394	45.4400	95	-167	-54	100551	0.65 
1810.359	-0.3530	-0.0283	0.9692	-0.3052	0.1221	1.7090	-2.0654	19.6051	162.4988	45.4400	96	-164	-54	100551	0.65 
1810.452	-0.3481	-0.0269	0.9634	-0.1831	-0.7324	2.1362	-2.0050	19.5502	162.2955	45.4400	97	-164	-56	100551	0.65 
1810.563	-0.3516	-0.0371	0.9702	0.0610	0.4272	1.5869	-1.9391	19.5776	162.1857	45.4500	97	-166	-57	100551	0.65 
1810.734	-0.3550	-0.0386	0.9604	0.2441	-0.3052	-1.8921	-1.9281	19.5337	161.7627	45.4400	95	-165	-55	100551	0.65 
1810.828	-0.3438	-0.0171	0.9722	0.8545	-1.7700	-1.8921	-1.8787	19.5007	161.2848	45.4400	96	-167	-56	100551	0.65 
1810.860	-0.3457	-0.0063	0.9658	0.4883	-1.7090	0.0000	-1.8567	19.3524	160.8014	45.4500	99	-165	-56	100551	0.65 
1810.969	-0.3467	-0.0244	0.9619	-0.4272	-1.0986	0.7935	-1.7523	19.2700	160.6036	45.4400	97	-165	-56	100551	0.65 
1811.110	-0.3496	-0.0293	0.9751	-0.1831	0.0000	-0.5493	-1.7413	19.2645	160.4059	45.4400	96	-167	-57	100552	0.65 
1811.219	-0.3350	-0.0181	0.9683	-0.3052	-0.6714	0.0000	-1.7798	19.1821	160.0269	45.4800	96	-168	-53	100551	0.65 
1811.281	-0.3433	-0.0293	0.9653	-0.4272	-0.5493	0.1831	-1.7743	19.1492	159.8566	45.4600	98	-169	-54	100552	0.65 
1811.438	-0.3555	-0.0146	0.9731	-0.4883	-0.3052	1.2207	-1.7798	19.1766	159.6643	45.4700	100	-167	-56	100552	0.65 
1811.500	-0.3379	-0.0332	0.9614	-0.6104	0.3052	1.3428	-1.7743	19.1162	159.6094	45.4800	97	-167	-58	100552	0.65 
1811.641	-0.3530	-0.0249	0.9746	-0.7324	-0.6104	1.7700	-1.7468	19.1602	159.5380	45.4800	96	-165	-52	100551	0.65 
1811.703	-0.3413	-0.0200	0.9702	-0.9155	-2.0142	2.1973	-1.7358	19.0448	159.5599	45.4800	94	-170	-53	100552	0.65