StartTime: 2017-07-14 14:47:44.458
Time(s)	ax(g)	ay(g)	az(g)	wx(deg/s)	wy(deg/s)	wz(deg/s)	AngleX(deg)	AngleY(deg)	AngleZ(deg)	T(°)	hx	hy	hz	Pressure(Pa)	Altitude(m) 
94.237	-0.3364	-0.0186	0.9580	0.1831	-0.7324	1.5869	-0.9723	19.5502	94.1418	43.8900	304	-12	-57	100551	0.65 
94.362	-0.3403	-0.0132	0.9604	-1.0376	0.7935	0.6104	-0.8844	19.5392	94.2407	43.8900	305	-9	-61	100551	0.65 
94.455	-0.3550	-0.0229	0.9780	0.1831	0.9766	-2.8687	-1.0931	19.6930	93.9606	43.8900	306	-10	-57	100551	0.65 
94.581	-0.3438	-0.0063	0.9614	-0.4272	1.2207	0.5493	-1.0382	19.7754	93.8013	43.9000	300	-11	-56	100551	0.65 
94.659	-0.3579	-0.0244	0.9619	-0.8545	-0.5493	1.2207	-1.0492	19.9402	93.8397	43.9100	302	-11	-56	100551	0.65 
94.784	-0.3633	-0.0078	0.9365	0.0610	1.9531	-2.1362	-1.1206	20.0775	93.6694	43.9200	303	-12	-51	100551	0.65 
94.878	-0.5767	-0.0503	0.8398	-2.1973	34.4238	16.2354	-0.6537	22.8900	94.5428	43.9400	305	-12	-49	100551	0.65 
94.987	-0.1821	0.0566	0.3779	6.9580	33.4473	-8.7280	-0.8130	25.5597	94.7021	43.9200	311	-16	-37	100551	0.65 
95.066	-0.2378	-0.0640	0.6133	-3.6621	48.4619	21.8506	0.4614	28.8776	94.7186	43.9100	310	-15	-22	100551	0.65 
95.222	-0.3486	0.0059	0.7100	1.7700	7.9346	-20.1416	-0.1868	31.8054	94.8230	43.9200	320	-21	-2	100551	0.65 
95.300	-0.7939	0.0313	1.2290	2.0142	32.2266	8.7891	0.2472	34.7278	95.6305	43.9200	318	-19	10	100551	0.65 
95.472	-0.5850	-0.1021	0.9824	-1.8921	-12.0850	-18.2495	-0.5658	32.9041	94.8010	43.9100	320	-25	11	100552	0.65 
95.550	-0.8184	-0.0215	1.3062	-3.0518	-20.5078	-5.1880	-0.5273	30.9265	94.3286	43.9100	322	-21	0	100553	0.64 
95.597	-1.3896	-0.0562	1.9121	-1.4038	5.3101	10.0708	-0.6097	29.6960	94.7900	43.9100	321	-24	-15	100554	0.64 
95.847	-0.8784	0.0801	1.5391	13.6108	72.4487	-11.7188	-1.2579	35.3979	92.5269	43.9000	327	-22	6	100554	0.64 
95.878	-0.6885	-0.0327	1.3794	18.5547	-1.5259	7.6294	0.2747	38.6938	92.1753	43.8800	328	-16	28	100554	0.64 
96.003	-1.1074	0.1655	1.5039	2.6855	-41.5039	-7.6904	1.0272	35.9473	92.1698	43.8500	329	-8	25	100554	0.64 
96.050	-0.1099	-0.1494	0.1528	-9.8267	-67.0166	40.4663	1.7908	28.2239	94.0649	43.8200	325	-6	-6	100554	0.64 
96.222	-0.2275	0.0693	-0.2466	-19.1040	94.6045	-11.4136	-4.1968	22.6044	91.4172	43.7800	314	-7	-51	100553	0.64 
96.269	0.0894	-0.0918	-0.0762	5.3101	-63.5986	3.5400	-4.9054	21.2860	90.6317	43.7600	317	-1	-54	100553	0.64 
96.362	-0.2256	0.0679	-0.0649	-5.8594	54.1382	13.3667	-6.0480	21.1542	89.2749	43.7700	319	-5	-67	100552	0.65 
96.456	0.3901	0.0254	0.4390	-7.5073	-9.9487	31.0059	-6.1798	22.9010	89.5990	43.7700	321	-5	-53	100551	0.65 
96.628	-0.9297	-0.2080	3.5308	8.2397	30.5786	-35.2173	-8.7122	30.1959	86.6272	43.7600	327	-3	-22	100551	0.65 
96.675	-0.1987	-0.0898	-0.4424	-5.9204	37.7808	64.0259	-5.7019	21.2311	87.4292	43.7400	313	4	-38	100550	0.65 
96.784	-0.1753	0.2793	0.5366	-0.9766	-92.1021	-8.0566	-6.3995	24.2523	86.1108	43.7500	316	4	-34	100550	0.65 
96.863	-0.6807	-0.1621	1.2197	3.9673	25.8789	-15.8691	-5.0977	23.4943	87.1161	43.7300	317	3	-49	100550	0.65 
97.050	-0.4375	0.1470	1.1143	1.4038	-24.7192	23.2544	-4.3506	22.1814	86.9788	43.7700	314	6	-51	100550	0.65 
97.081	-0.3857	-0.1396	0.9180	-8.3008	5.2490	10.0098	-3.6914	21.5167	89.2694	43.7500	314	2	-54	100550	0.65 
97.191	-0.2598	0.0933	0.8560	-6.7749	-31.4941	4.3335	-4.2133	19.4073	89.8901	43.7400	307	0	-54	100549	0.65 
97.253	-0.3794	-0.0952	1.0508	-0.9766	1.6479	1.1597	-4.3671	19.2096	90.2747	43.7600	305	-1	-63	100549	0.65 
97.425	-0.3203	0.0142	0.9902	-0.5493	-2.0142	3.6621	-3.9056	18.8635	90.8350	43.7500	303	-1	-66	100549	0.65 
97.472	-0.3120	-0.0337	0.9619	-3.1128	0.1831	5.9204	-3.7463	18.5834	91.3458	43.7400	304	-2	-67	100549	0.65 
97.613	-0.3271	-0.0146	0.9561	-2.0142	1.5259	3.5400	-3.6255	18.6823	91.8127	43.7900	305	-6	-66	100549	0.65 
97.676	-0.3452	-0.0313	0.9497	-0.1221	0.1221	2.1362	-3.4167	18.9679	92.2412	43.7900	305	-6	-63	100549	0.65 
97.800	-0.3369	-0.0034	0.9858	-5.1270	1.2817	24.0479	-2.9224	19.8688	93.2300	43.7900	308	-10	-63	100550	0.65 
97.879	-0.3179	-0.0103	0.9604	-0.6714	19.1040	-3.4790	-2.9883	20.3082	94.0485	43.8000	310	-14	-58	100550	0.65 
98.003	-0.3804	-0.0034	0.9561	2.1362	4.6997	-6.5308	-2.9608	21.5607	93.4113	43.7900	309	-15	-51	100550	0.65 
98.097	-0.4175	0.0005	0.9668	2.3193	6.5918	-3.5400	-2.7466	22.3517	92.8125	43.7900	310	-7	-49	100550	0.65 
98.222	-0.4443	-0.0127	0.9058	1.2207	11.5967	-3.9063	-2.6477	23.1262	92.2742	43.8000	310	-10	-47	100550	0.65 
98.300	-0.4595	0.0508	0.9424	1.0986	12.3901	-3.6621	-2.7026	24.7412	91.5491	43.8200	310	-6	-37	100549	0.65 
98.425	-0.4814	-0.0605	0.8096	-0.1221	26.4282	-9.4604	-2.8894	26.2848	90.9998	43.8400	317	-4	-31	100550	0.65 
98.503	-0.4658	0.0010	0.6699	9.3994	28.0151	-13.3057	-3.0432	29.7839	89.4012	43.8500	316	0	-19	100550	0.65 
98.644	-0.2827	0.1289	0.4351	9.3384	15.3809	13.4888	-1.6534	31.5033	89.0277	43.8500	318	0	-11	100550	0.65 
98.722	-0.5244	-0.0488	0.7764	-8.5449	11.5356	-8.6060	-1.3898	34.4037	89.7308	43.8400	323	-4	0	100550	0.65 
98.863	-0.4878	-0.0190	0.6885	-14.8315	-5.1270	14.4043	-2.1643	34.1235	90.1758	43.8400	322	-4	7	100551	0.65 
98.946	-0.5977	0.0571	0.9131	-0.2441	-38.1470	0.2441	-2.5488	33.4698	90.7526	43.8500	322	-6	8	100551	0.65 
99.071	-0.4487	-0.0850	0.9131	-3.9063	-25.5737	6.5308	-2.0819	29.8279	91.9171	43.8400	321	-12	-4	100552	0.65 
99.149	-0.6924	0.1064	1.2134	0.3662	-29.1138	8.9722	-1.7358	27.9492	92.4005	43.8400	323	-15	-19	100553	0.64 
99.274	-0.5854	-0.1284	1.2349	-1.0376	-30.7617	-2.7466	-1.9501	24.9500	92.5873	43.8600	320	-15	-36	100553	0.64 
99.368	-0.6733	0.0542	1.4141	0.7935	9.2163	2.8076	-1.9116	24.5050	92.2522	43.8400	314	-16	-42	100554	0.64 
99.462	-0.9287	-0.0352	1.3950	22.0337	86.4868	-14.5264	-0.9558	28.6798	91.3348	43.8600	319	-15	-31	100555	0.64 
99.571	-0.8398	0.0566	1.2324	0.7935	73.3032	0.3052	0.7141	37.4084	90.7690	43.8500	326	-9	0	100555	0.64 
99.712	-0.8833	-0.0112	1.5195	1.4038	-13.6108	1.7700	0.0275	39.5892	89.7418	43.8400	329	-5	28	100555	0.64 
99.821	-0.8364	0.1602	1.0283	0.4883	-74.7070	11.5356	0.0330	32.7557	89.7473	43.8200	327	0	14	100556	0.64 
99.899	0.0654	-0.1421	-0.0708	-3.9673	-111.8164	-15.3809	0.0110	26.2573	91.4008	43.7700	324	0	-19	100555	0.64 
99.978	-0.1899	0.1831	0.2671	-14.7095	49.9878	10.0098	-3.8452	21.8683	90.9613	43.7500	313	0	-59	100554	0.64 
100.149	0.0864	-0.1665	-0.1636	-9.3994	-20.6909	3.0518	-5.9106	19.9786	91.7523	43.7400	313	-3	-64	100553	0.64 
100.196	-0.2139	0.0254	0.0117	-18.3105	-7.7515	17.8223	-10.8215	19.0063	90.3845	43.7200	314	-3	-71	100552	0.64 
100.305	-1.9761	-0.0557	5.0137	6.4697	11.6577	-34.9731	-14.3646	26.9989	88.7805	43.7200	321	-6	-48	100551	0.65 
100.446	-1.0107	-0.0630	1.8384	-3.9063	11.3525	57.3730	-12.0410	21.1871	91.5161	43.7400	313	0	-45	100551	0.65 
100.509	-0.1392	-0.1152	0.1538	15.8691	-2.9907	-20.6299	-11.6180	15.6061	91.6864	43.7100	309	-3	-63	100551	0.65 
100.727	-0.4175	0.0488	1.0010	5.0049	-7.3853	11.9629	-10.8820	17.8528	91.7084	43.7100	310	-2	-71	100551	0.65 
100.759	-0.3496	0.0020	0.9453	-5.5542	-6.7139	3.7231	-9.8163	17.9187	93.0762	43.7300	310	-7	-73	100551	0.65 
100.837	-0.3877	-0.0898	1.0435	-1.9531	9.5215	1.5869	-9.4922	18.8196	93.6255	43.7300	307	-7	-71	100551	0.65 
100.947	-0.2788	0.0083	0.8857	0.7935	-2.9297	0.3052	-9.0527	18.2208	93.4167	43.7400	307	-6	-66	100551	0.65 
101.056	-0.3442	-0.0225	0.9595	-0.4883	-3.2959	-3.5400	-8.5748	18.5065	93.2135	43.7500	306	-6	-66	100551	0.65 
101.150	-0.3540	-0.0020	0.9771	-0.7935	-3.3569	1.7700	-8.1628	18.3307	93.0103	43.7300	304	-6	-64	100551	0.65 
101.275	-0.3218	-0.0205	0.9697	0.0000	0.7324	-0.4883	-7.7618	18.3417	93.0322	43.7600	304	-5	-66	100551	0.65 
101.353	-0.3403	-0.0029	0.9839	-0.0610	1.2817	3.5400	-7.2675	18.6053	93.1805	43.7500	301	-6	-68	100551	0.65 
101.462	-0.3369	-0.0137	0.9609	-1.5259	1.4648	3.9673	-6.8225	18.7646	93.5760	43.7600	306	-7	-68	100552	0.65 
101.572	-0.3545	-0.0425	0.9741	-0.0610	0.3662	-1.5259	-6.5698	18.9844	93.6310	43.7800	305	-10	-66	100552	0.65 
101.665	-0.3403	-0.0068	0.9741	0.2441	-1.8921	-7.3242	-6.4105	18.9130	93.0377	43.7900	306	-7	-65	100551	0.65 
101.775	-0.3481	-0.0127	0.9429	1.7700	2.9297	0.5493	-6.0040	18.8416	92.6367	43.7900	305	-4	-66	100551	0.65 
101.868	-0.3403	-0.0498	0.9292	1.6479	4.6387	-11.9629	-5.8447	19.1052	92.0380	43.7700	304	-6	-65	100551	0.65 
101.947	-0.3232	0.0166	0.8457	-3.7842	13.0005	-3.4180	-5.8997	19.6106	91.0272	43.7900	308	-1	-60	100551	0.65 
102.103	-0.3286	-0.0854	0.7505	-10.9863	23.6206	-15.5029	-6.8610	21.6980	90.1813	43.8000	307	0	-56	100551	0.65 
102.150	-0.3374	0.0479	0.6880	3.4180	25.5737	-0.0610	-7.5092	23.6096	88.5278	43.8100	312	3	-46	100551	0.65 
102.337	-0.3164	-0.1045	0.5156	-0.6104	30.0293	-5.8594	-7.1960	26.1914	88.5608	43.8200	314	3	-36	100551	0.65 
102.415	-0.4453	0.0991	0.7437	-4.8828	29.9072	-5.7983	-8.8879	29.4159	86.2097	43.8200	317	6	-23	100551	0.65 
102.494	-0.5835	-0.3066	1.0908	-0.4272	1.9531	-0.6104	-8.1903	31.7010	87.1216	43.8200	321	10	-9	100552	0.65 
102.587	-0.5879	0.0239	0.9736	-6.6528	14.1602	15.6250	-8.2617	31.6461	86.5063	43.8100	321	11	-3	100552	0.64 
102.744	-0.4741	-0.1318	1.0088	0.4272	-41.5649	-5.9204	-7.4762	30.0861	88.1323	43.8200	325	3	-7	100553	0.64 
102.790	-0.6113	-0.0352	1.0483	-1.9531	-36.7432	2.0142	-6.6907	26.6858	89.1925	43.8300	325	2	-20	100554	0.64 
102.915	-0.5034	0.0200	1.2461	8.8501	-40.8936	2.8687	-5.9985	23.0328	89.5990	43.8200	322	1	-42	100554	0.64 
102.994	-0.2930	-0.0405	1.1235	-10.1318	-45.4712	-6.6528	-5.9766	19.1492	89.7308	43.8100	312	0	-58	100555	0.64 
103.181	-1.0347	-0.0786	1.7095	15.5029	62.8662	6.1035	-5.2954	21.3409	90.3955	43.8100	313	-2	-63	100555	0.64 
103.228	-0.7168	-0.0679	1.3247	16.2964	97.4121	15.8691	-3.3508	28.8336	90.4669	43.8300	321	0	-35	100556	0.64 
103.306	-0.5562	-0.0674	1.2119	13.5498	-17.3340	-11.4136	-1.7688	34.2224	89.9780	43.8000	330	-3	-1	100556	0.64 
103.431	-1.1011	-0.0645	1.9165	8.7891	-48.3398	-13.9160	-2.2412	31.9812	88.1268	43.7900	326	2	5	100556	0.64 
103.587	-0.4341	0.4214	0.0278	-8.7280	-28.0762	31.4331	0.4010	22.4615	89.4177	43.7500	319	9	-34	100556	0.64 
103.634	0.1641	-0.2275	-1.2314	-5.0049	-23.0713	-8.5449	-2.3456	16.3971	90.7965	43.6900	306	2	-68	100555	0.64 
103.728	-0.0200	0.0767	0.2124	-5.7373	-40.7715	30.0903	-3.8892	19.1272	92.1863	43.6800	312	-1	-76	100555	0.64 
103.837	-0.0645	-0.0415	-0.1685	-7.0190	15.2588	5.3101	-9.3274	16.3037	92.0544	43.6800	306	-6	-81	100554	0.64 
103.947	-0.3931	-0.1621	-0.0361	-0.7324	2.7466	20.5078	-10.2832	17.9956	92.9663	43.6600	312	-7	-79	100553	0.64 
104.041	0.1763	0.0859	1.5576	-15.1367	14.4043	3.3569	-10.2393	18.6987	92.2632	43.6600	315	-8	-53	100553	0.64 
104.150	-0.0542	-0.2378	0.3989	7.2021	-55.1758	19.4702	-9.7833	15.7050	93.8397	43.6400	306	-11	-64	100553	0.64 
104.306	-0.2227	0.1040	0.3667	5.1270	-20.2637	-18.3716	-9.2395	17.1826	94.2352	43.6300	307	-15	-72	100553	0.64 
104.353	-0.4937	0.0161	1.4204	-3.6621	-5.1880	-4.5776	-8.7781	19.3689	93.7518	43.6300	311	-14	-70	100553	0.64 
104.525	-0.3081	-0.0542	0.8848	-2.5635	29.1138	0.0000	-8.2288	18.6548	93.8782	43.6500	310	-15	-72	100553	0.64 
104.556	-0.2441	-0.0386	0.8667	3.1738	-13.4888	-21.4844	-8.0640	18.5284	92.8345	43.6600	311	-13	-63	100553	0.64 
104.651	-0.3892	-0.0210	1.0366	0.9766	0.4272	-2.5024	-7.7563	19.0448	91.6699	43.6600	310	-10	-66	100553	0.64 
104.775	-0.3613	0.0005	0.9473	-0.2441	2.9907	-3.7231	-7.6465	18.7921	91.4172	43.6600	309	-8	-65	100552	0.64 
104.884	-0.3418	-0.0298	0.9531	-2.6245	-2.4414	-0.9766	-7.5531	18.7811	91.1975	43.6700	309	-5	-67	100552	0.64 
104.978	-0.3496	-0.0244	0.9556	-1.0986	-1.4648	-1.0376	-7.3828	18.6932	91.1481	43.6800	309	-3	-64	100552	0.64 
105.088	-0.3306	-0.0278	0.9604	0.0000	-2.1973	-1.0986	-7.1411	18.5724	91.0162	43.6700	307	-2	-65	100552	0.64 
105.181	-0.3579	-0.0391	0.9800	-0.3052	-0.1831	1.8311	-6.8390	18.7207	91.0876	43.7000	303	-3	-65	100552	0.64 
105.291	-0.3457	-0.0356	0.9717	-0.9155	-0.4883	3.1738	-6.5204	18.7372	91.4063	43.7100	307	-2	-70	100552	0.64 
105.400	-0.3481	-0.0430	0.9736	-0.9766	-1.2207	1.5259	-6.3062	18.7427	91.7249	43.7100	308	-3	-64	100552	0.64 
105.479	-0.3428	-0.0347	0.9590	-0.2441	-0.7324	1.3428	-6.1249	18.7317	91.7194	43.7200	304	-1	-66	100553	0.64 
105.603	-0.3564	-0.0200	0.9878	0.0000	-0.4272	2.0142	-5.8118	18.7866	91.9720	43.7400	307	-4	-69	100553	0.64 
105.682	-0.3530	-0.0322	0.9800	0.0000	-1.4648	2.1362	-5.5151	18.7207	92.1918	43.7300	304	-5	-63	100553	0.64 
105.806	-0.3462	-0.0352	0.9663	0.2441	0.4883	2.2583	-5.2020	18.6548	92.4170	43.7600	305	-6	-71	100553	0.64 
105.885	-0.3286	-0.0371	0.9658	0.3662	-0.6104	0.9155	-4.9384	18.6603	92.5433	43.7500	303	-4	-67	100553	0.64 
106.041	-0.3521	-0.0244	0.9722	2.1973	0.0000	-2.3193	-4.7076	18.8031	92.4390	43.7600	304	-6	-63	100553	0.64 
106.166	-0.3643	-0.0024	0.9722	0.7324	2.9907	-2.9907	-4.4879	18.9789	92.0050	43.7800	305	-4	-65	100552	0.64 
106.228	-0.3525	-0.0215	0.9639	-1.1597	0.1831	5.1880	-4.2407	19.0723	92.0874	43.7900	305	0	-64	100552	0.64 
106.416	-0.3604	-0.0142	0.9644	0.0000	1.1597	5.1880	-3.9276	19.2645	92.5543	43.8000	304	-4	-66	100552	0.64 
106.447	-0.3506	-0.0244	0.9722	-0.3662	0.1221	1.3428	-3.7079	19.4293	92.7301	43.8000	307	-6	-64	100552	0.64 
106.635	-0.3623	-0.0298	0.9707	-0.2441	1.4038	4.0894	-3.4772	19.6051	92.9883	43.8000	309	-6	-66	100552	0.64 
106.650	-0.3682	-0.0293	0.9497	0.0000	0.5493	-1.0986	-3.3563	19.6710	93.1091	43.8000	307	-12	-64	100552	0.65 
106.822	-0.3633	-0.0049	0.9619	-0.9155	-0.4272	-2.3193	-3.3398	19.6600	92.7301	43.8100	309	-8	-63	100552	0.65 
106.869	-0.3589	-0.0234	0.9658	-1.7090	0.2441	1.7090	-3.2465	19.6600	92.7576	43.8100	307	-8	-65	100552	0.65 
106.978	-0.3511	-0.0205	0.9697	-0.7324	-0.1831	1.8311	-3.2190	19.6545	92.8180	43.8200	307	-7	-67	100551	0.65 
107.057	-0.3569	-0.0137	0.9478	-1.0376	-2.9297	3.4180	-2.9498	19.5776	93.0322	43.8400	305	-6	-71	100551	0.65 
107.182	-0.3496	-0.0278	0.9546	-5.0049	-1.3428	6.4087	-2.9114	19.3909	93.4662	43.8200	305	-8	-68	100551	0.65 
107.260	-0.3594	-0.0527	0.9795	-1.0986	1.4038	3.8452	-3.0981	19.4568	93.9606	43.8300	303	-11	-68	100551	0.65