StartTime: 2017-07-14 14:47:44.458
Time(s)	ax(g)	ay(g)	az(g)	wx(deg/s)	wy(deg/s)	wz(deg/s)	AngleX(deg)	AngleY(deg)	AngleZ(deg)	T(°)	hx	hy	hz	Pressure(Pa)	Altitude(m) 
2.787	-0.3267	-0.0229	0.9688	-0.5493	0.5493	1.7090	-1.2799	18.0670	86.1438	44.4300	210	19	-67	100548	0.65 
2.897	-0.3267	-0.0151	0.9697	-0.6104	-0.4272	1.3428	-1.2744	18.1274	86.2152	44.4400	209	17	-63	100548	0.65 
2.990	-0.3262	-0.0234	0.9751	-0.8545	0.1831	1.9531	-1.2799	18.1439	86.3251	44.4600	207	17	-62	100548	0.65 
3.178	-0.3364	-0.0234	0.9727	-0.6714	-0.3052	0.9766	-1.2909	18.2318	86.4185	44.4500	210	16	-63	100548	0.65 
3.209	-0.3472	-0.0176	0.9819	-0.2441	1.5259	-0.3052	-1.3458	18.3527	86.3251	44.4600	208	17	-65	100548	0.65 
3.303	-0.3315	-0.0474	0.9780	-1.9531	0.5493	-0.4883	-1.4612	18.4131	86.2866	44.4400	208	15	-65	100548	0.65 
3.381	-0.3428	-0.0361	0.9897	-3.2959	3.6011	-6.4697	-2.0270	18.5394	85.7043	44.4600	212	18	-63	100548	0.65 
3.600	-0.2822	-0.0752	0.9604	-3.7842	-3.4180	7.6294	-2.1643	18.1274	85.9625	44.4500	211	18	-63	100548	0.65 
3.615	-0.3262	-0.0732	0.9663	3.5400	2.6245	-4.6387	-2.4500	18.2483	86.0175	44.4600	211	17	-69	100548	0.65 
3.709	-0.3208	-0.0161	0.9810	4.0894	2.0752	3.1738	-2.0105	18.5394	85.8636	44.4400	211	17	-65	100548	0.65 
3.803	-0.3560	-0.0376	0.9463	4.0894	10.1318	5.5542	-1.4667	19.1052	86.3910	44.4500	210	15	-63	100548	0.65 
3.912	-0.3574	0.0947	0.7979	-2.9297	11.5356	21.5454	-0.7910	20.6378	87.4841	44.4400	213	13	-59	100548	0.65 
4.006	-0.3418	-0.1011	1.2510	-5.0049	8.3618	1.4038	-0.9668	21.8738	88.6322	44.4600	218	9	-56	100548	0.65 
4.115	-0.2563	-0.0239	0.8867	10.9253	11.5967	13.7939	-0.0439	21.6541	89.3793	44.4700	218	7	-51	100548	0.65 
4.194	-0.1997	0.1196	1.0137	-0.9155	2.2583	7.6294	0.8624	21.8903	89.9396	44.4700	218	6	-51	100549	0.65 
4.319	-0.2378	-0.0278	1.0249	0.4883	20.9351	-5.0049	0.4285	21.8628	89.9341	44.4600	218	4	-47	100549	0.65 
4.397	-0.2627	0.1250	1.1270	9.9487	-7.6294	-8.5449	1.1646	22.3682	89.1925	44.4600	220	7	-43	100549	0.65 
4.537	-0.5068	0.2114	1.0483	-1.0376	-11.1694	19.5923	2.2852	21.8518	88.9069	44.4500	218	5	-42	100549	0.65 
4.616	-0.4263	-0.2422	0.4785	-15.1978	-28.3813	-23.1934	1.4392	20.0720	90.3241	44.4400	219	7	-48	100549	0.65 
4.803	-0.4092	0.1021	1.0488	-4.0283	-7.2632	17.6392	-0.2527	19.8358	88.9948	44.4200	219	8	-52	100549	0.65 
4.834	-0.2358	-0.1064	0.8677	-8.6060	11.9629	-8.7280	-1.8567	19.1602	89.0112	44.4200	217	11	-55	100549	0.65 
4.928	-0.1846	-0.1289	0.8926	-2.7466	-1.2817	1.5869	-2.4884	19.3689	89.3243	44.4300	216	8	-52	100549	0.65 
5.037	-0.3745	0.0400	1.1445	0.6104	-13.0615	22.5830	-2.0929	19.7534	90.5054	44.4400	221	8	-53	100549	0.65 
5.131	-0.4888	0.0015	1.0874	-2.1362	-21.3623	28.8696	-2.3895	18.0066	91.6644	44.4200	221	6	-56	100549	0.65 
5.225	-0.4722	-0.0117	0.6255	-0.1221	-0.8545	-37.2314	-3.7244	17.8473	90.9778	44.4100	224	4	-55	100549	0.65 
5.350	-0.3779	-0.1465	0.9829	10.0098	-17.3340	-9.2163	-3.1201	18.1659	88.5498	44.3900	223	13	-56	100549	0.65 
5.428	-0.2104	0.0898	0.7764	20.2637	20.0806	-38.2080	-2.6697	17.5232	85.2319	44.4100	222	19	-62	100549	0.65 
5.548	-0.1729	0.1401	0.9033	-1.0986	0.1831	-4.3335	-1.8402	18.2538	82.9468	44.4000	223	27	-56	100549	0.65 
5.633	-0.2729	-0.0933	1.1992	-3.9063	2.2583	-13.5498	-2.2083	18.4076	82.4304	44.3800	224	28	-56	100549	0.65 
5.820	-0.9585	0.0898	1.4961	11.4136	16.1133	9.4604	-1.9885	17.9132	81.1230	44.3900	226	33	-58	100549	0.65 
5.851	-0.3184	-0.2207	0.3594	-2.3193	-6.8970	4.2725	-0.5328	17.4683	84.1553	44.3900	224	27	-61	100549	0.65 
5.960	-0.5015	0.1021	1.2222	-19.2261	10.5591	40.1611	-1.6095	19.7369	85.8691	44.3800	230	24	-65	100548	0.65 
6.132	-0.2456	-0.1138	0.7095	-13.0615	36.8652	27.7100	-2.9279	19.4788	88.8135	44.3900	236	17	-61	100548	0.65 
6.164	-0.2598	-0.1104	1.0400	-4.3335	1.0376	18.1274	-2.4774	21.4783	91.2634	44.4100	240	7	-56	100549	0.65 
6.258	-0.2715	-0.2090	1.2305	-7.3853	1.0376	1.0986	-2.7191	20.5334	92.5928	44.4000	241	2	-54	100549	0.65 
6.383	-0.6147	-0.2397	1.0161	-14.0991	-13.7939	-8.7891	-3.2410	20.2643	93.8287	44.3900	239	3	-60	100549	0.65 
6.539	-0.3228	0.1763	0.9839	8.4229	-0.2441	-23.3765	-5.8832	19.4568	87.9510	44.4000	239	15	-59	100549	0.65 
6.570	-0.2681	-0.0586	0.6655	21.7896	-6.3477	-37.2314	-4.5264	19.2206	87.5830	44.3800	236	18	-62	100549	0.65 
6.742	-0.2515	0.2285	0.9819	10.6812	-5.1270	-3.5400	-3.1311	19.3634	84.1498	44.3800	237	20	-64	100549	0.65 
6.789	-0.2759	-0.1943	1.1392	-1.8311	-0.3052	-14.6484	-2.6642	18.2758	84.2761	44.3900	236	25	-67	100549	0.65 
6.868	-0.6157	0.2026	1.1167	8.0566	-22.1558	8.8501	-1.8896	16.0236	83.0841	44.3800	234	27	-74	100549	0.65 
6.992	-0.4033	-0.4434	0.7798	12.4512	-13.9771	4.0894	-0.0110	15.0842	86.7700	44.3700	236	19	-81	100549	0.65 
7.071	-0.3477	0.2500	0.8701	-16.4185	-1.4648	10.8643	-0.9943	14.4415	84.8254	44.3700	228	22	-89	100549	0.65 
7.197	-0.2749	-0.1729	1.0337	-9.9487	40.1611	29.6631	-2.6587	15.9851	87.0117	44.3800	232	20	-88	100549	0.65 
7.369	-0.2627	0.0386	1.0649	-13.2446	13.6108	37.1704	-2.4664	17.9791	89.4452	44.3600	244	13	-78	100549	0.65 
7.400	-0.0601	-0.2773	1.3062	-15.4419	-1.5869	11.5967	-2.8345	16.7542	92.6807	44.3700	248	3	-79	100549	0.65 
7.494	-0.5215	-0.1978	0.6768	-17.0898	-24.2310	-11.3525	-3.8672	17.3035	94.0649	44.3900	249	0	-78	100550	0.65 
7.588	-0.4482	0.1001	1.1113	19.6533	15.8691	-1.8311	-4.5923	17.0288	90.4779	44.3600	249	5	-81	100549	0.65 
7.697	-0.0420	0.0669	0.5200	17.9443	2.2583	-46.5088	-3.7518	15.5292	87.8467	44.3600	248	9	-87	100550	0.65 
7.791	-0.2856	0.0679	1.0786	0.7324	19.8975	-24.7192	-3.3179	17.4738	84.6661	44.3700	248	21	-86	100550	0.65 
7.994	-0.1655	0.1182	1.2939	3.2959	-1.8921	-30.7007	-3.3344	16.6553	82.0953	44.3500	248	28	-84	100550	0.65 
8.010	-0.6602	0.1782	1.2051	19.1650	-20.0806	20.2637	-1.4502	16.3477	81.6229	44.3700	247	34	-88	100550	0.65 
8.088	-0.2642	-0.1602	1.0337	0.6104	8.4839	0.9155	-0.0604	15.4028	84.0564	44.3800	248	22	-93	100550	0.65 
8.213	-0.3335	0.0229	0.7046	-23.3765	-15.9302	22.8882	-0.6647	16.5619	85.9790	44.3700	247	19	-96	100550	0.65 
8.307	-0.2544	-0.1016	1.0073	-4.8828	27.5879	27.5879	-2.2742	18.3417	89.0222	44.3700	254	11	-93	100550	0.65 
8.432	-0.3066	0.0796	1.1133	-11.7188	5.0659	40.4663	-1.9995	19.8578	92.1204	44.3700	259	2	-83	100550	0.65 
8.510	-0.3467	-0.0742	1.2554	-12.0850	-19.2261	35.6445	-2.0544	18.5889	95.5536	44.3800	263	-2	-79	100550	0.65 
8.635	-0.5039	0.0034	0.4912	-4.0894	-16.9067	-45.3491	-3.5925	19.8523	94.6362	44.3800	266	-5	-77	100550	0.65 
8.807	-0.4990	0.0317	1.1348	19.4702	10.1929	0.6104	-2.9498	21.2585	91.8402	44.3700	268	5	-78	100550	0.65 
8.822	-0.1689	0.0811	0.7344	21.3623	12.2070	-35.2783	-1.8127	20.4401	88.9398	44.3700	266	8	-78	100550	0.65 
8.932	-0.1807	0.1709	0.9800	-6.2866	-6.4087	-3.4790	-1.2085	20.5829	86.9293	44.3800	262	19	-77	100550	0.65 
9.057	-0.3438	0.0693	1.5435	7.4463	-0.9155	-23.6206	-2.1863	19.2645	85.1770	44.3600	259	24	-84	100550	0.65 
9.135	-0.6865	0.1147	0.8545	17.7612	-24.1699	37.9639	-1.3293	17.3474	84.0509	44.3700	251	28	-84	100550	0.65 
9.244	-0.2974	-0.0986	1.0664	-0.1221	27.0996	-2.1973	-0.6152	17.6495	86.1218	44.3700	250	27	-92	100549	0.65 
9.322	-0.1973	-0.0005	0.5562	-24.9023	-17.2729	38.2690	-0.9064	17.9297	86.9897	44.3800	255	26	-89	100549	0.65 
9.478	-0.2280	-0.1782	0.9751	0.8545	6.4087	13.3667	-2.5433	19.4843	90.2307	44.3700	257	22	-85	100549	0.65 
9.589	-0.2974	0.0591	1.1191	-4.7607	-5.6152	36.3770	-2.1039	19.9457	92.0160	44.3800	261	17	-82	100549	0.65 
9.637	-0.9268	-0.1885	1.4189	-10.1318	26.4893	15.1978	-2.4390	19.1547	94.5648	44.3500	259	8	-76	100549	0.65 
9.856	-0.3140	0.1108	0.4565	-2.3804	-10.2539	-28.6865	-3.6145	19.3744	91.6150	44.3500	257	11	-79	100549	0.65 
9.887	-0.4175	-0.1553	0.9360	13.9771	-19.5923	-16.2354	-3.0817	20.4730	89.6210	44.3700	259	18	-75	100549	0.65 
9.949	-0.1265	0.1445	0.7744	10.8032	7.9346	-11.9629	-1.6205	18.4186	87.2809	44.3400	248	22	-80	100549	0.65 
10.090	-0.3052	0.0142	1.1099	0.0000	11.9019	-6.3477	-1.8182	19.4293	85.6824	44.3400	245	30	-78	100549	0.65 
10.153	-0.2056	0.2012	1.4951	9.9487	-2.5635	-9.2773	-1.8292	18.6328	83.6884	44.3400	239	32	-76	100549	0.65 
10.278	-0.5552	0.0044	0.5742	10.0098	-29.3579	47.7295	0.4340	17.5781	85.5505	44.3300	234	33	-80	100549	0.65 
10.371	-0.3442	0.1011	0.9531	-10.6201	24.1699	-6.4697	-0.0989	18.5834	86.5393	44.3300	234	25	-82	100549	0.65 
10.528	-0.1792	-0.2500	0.6118	-21.9116	-19.2871	16.1133	-1.0657	18.5669	87.8082	44.3300	230	24	-76	100548	0.65 
10.574	-0.2710	0.0679	0.9775	-1.5869	21.3623	25.8789	-1.7798	19.5941	89.8517	44.3300	231	22	-78	100548	0.65 
10.684	-0.2295	-0.1191	0.8618	-5.5542	-8.0566	36.8042	-1.4667	19.3689	93.0212	44.3400	229	13	-74	100548	0.65 
10.778	-0.8193	-0.1128	1.7407	-13.0615	1.2817	-27.4048	-2.5708	20.2313	94.2627	44.3200	226	5	-68	100547	0.65 
10.934	-0.3252	0.0054	0.7104	7.7515	39.8560	-32.7759	-3.9276	19.6820	90.8844	44.3200	223	8	-74	100547	0.65 
11.028	-0.2642	-0.0786	0.7705	20.3247	-45.4712	-35.6445	-3.0597	20.1544	87.0721	44.3200	221	15	-69	100547	0.65 
11.090	-0.1743	0.2031	0.9111	8.6060	21.5454	-19.6533	-1.6644	18.4076	83.7708	44.3200	218	18	-75	100547	0.65 
11.169	-0.2915	-0.0854	1.0586	-2.2583	-10.2539	-7.9346	-1.8732	18.4735	82.3041	44.3000	214	24	-69	100547	0.65 
11.293	-0.2383	0.1592	1.4517	9.0332	-28.1982	-0.0610	-1.7908	17.2485	80.9857	44.3200	210	22	-74	100547	0.65 
11.387	-0.5029	-0.0347	0.3638	-1.1597	-31.3721	38.9404	0.6042	16.0950	83.6444	44.3200	210	15	-78	100548	0.65 
11.496	-0.4590	0.0737	1.1470	-13.2446	30.8228	8.6060	-0.9888	18.4351	85.7153	44.3200	210	14	-80	100547	0.65 
11.590	-0.1797	-0.1719	0.5933	-19.5313	17.7002	27.8931	-1.8182	18.7921	88.2751	44.3100	210	7	-75	100547	0.65 
11.762	-0.2065	-0.1323	0.8838	0.9766	-2.3193	21.6064	-2.4060	20.4675	91.1261	44.3200	214	-1	-70	100547	0.65 
11.809	-0.2959	-0.0654	1.1387	0.0610	-2.7466	29.0527	-1.4557	20.1929	93.8177	44.3000	216	-7	-66	100547	0.65 
11.903	-0.7178	-0.1675	1.4023	-12.3901	13.6108	-1.1597	-2.2852	19.7644	95.9106	44.3100	212	-18	-68	100547	0.65 
12.012	-0.4102	0.0869	1.1689	11.1694	13.3057	-51.3306	-4.1364	19.1602	92.4115	44.3000	213	-14	-72	100547	0.65 
12.137	-0.2148	-0.1655	0.5454	21.3623	-21.7285	-31.9214	-2.9333	18.2813	89.9066	44.2900	214	-6	-75	100548	0.65 
12.215	-0.2827	0.2832	1.0107	2.5635	-2.3193	-17.9443	-1.6754	18.8086	87.0392	44.2900	210	-4	-72	100548	0.65 
12.325	-0.2842	-0.2231	1.0527	-2.5635	12.2070	-10.9253	-2.1698	18.0615	86.3031	44.3000	214	0	-72	100548	0.65 
12.481	-0.2075	0.0674	1.2051	8.1177	-39.6729	-18.2495	-2.0325	16.9629	84.1058	44.2900	214	0	-69	100548	0.65 
12.543	-0.4502	-0.2344	0.4600	12.2681	-27.1606	24.7192	-0.2747	16.1005	85.4132	44.3000	211	1	-72	100548	0.65 
12.606	-0.3755	0.2515	0.9941	-20.5688	22.9492	4.8218	-1.0712	17.4847	86.8744	44.2900	211	-1	-73	100548	0.65 
12.778	-0.1318	-0.2876	0.6890	-17.3340	24.3530	35.7056	-2.6971	17.5891	89.6155	44.2600	212	-4	-72	100548	0.65 
12.825	-0.2578	-0.0278	0.9614	-9.9487	10.2539	30.7007	-2.2467	20.0391	93.2574	44.2800	219	-10	-64	100548	0.65 
12.934	-0.1699	-0.2710	1.1021	-7.0190	-7.2632	33.2031	-2.0764	19.2041	97.2784	44.2700	222	-16	-64	100548	0.65 
13.090	-0.6045	-0.0713	0.9551	-16.0522	-24.5972	-10.5591	-3.2629	19.2206	98.4155	44.2700	220	-27	-58	100548	0.65 
13.153	-0.4214	-0.0991	1.1328	17.0288	25.3906	-33.6914	-4.9384	19.4513	94.5264	44.2700	220	-19	-63	100547	0.65 
13.231	-0.2231	-0.0356	0.5415	25.0854	-7.2632	-41.0767	-3.0048	18.9404	92.6917	44.2900	223	-13	-60	100547	0.65 
13.356	-0.2891	0.2163	1.0313	7.7515	9.5825	-19.7144	-2.1368	20.6982	88.8519	44.2600	221	-1	-57	100547	0.65 
13.497	-0.1865	-0.1274	0.9932	-2.2583	-14.2212	-18.4937	-2.3676	19.7260	87.4402	44.2700	222	1	-57	100547	0.65 
13.559	-0.7754	-0.0288	1.2642	4.7607	-30.3955	7.3853	-2.1753	18.6987	86.1493	44.2700	222	6	-55	100547	0.65 
13.778	-0.4180	-0.3872	0.3071	7.9956	-15.9912	29.7241	0.3406	17.5891	89.3848	44.2500	218	6	-61	100547	0.65 
13.794	-0.4780	0.4370	1.0625	-17.8833	18.9209	9.2773	-0.7471	19.4897	89.4727	44.2800	221	2	-64	100547	0.65 
13.950	-0.2505	-0.3110	0.9307	-20.0195	32.8369	27.1606	-2.1863	19.7150	92.2852	44.2400	221	1	-64	100547	0.65 
13.981	-0.1563	-0.0205	0.8535	-4.9438	0.0610	30.5786	-2.2302	20.0006	94.9878	44.2500	222	-3	-59	100547	0.65 
14.169	-0.2700	-0.2241	1.3569	-4.5776	9.0332	17.3950	-1.4502	19.8029	97.6740	44.2500	226	-8	-60	100547	0.65 
14.184	-0.6587	-0.2529	0.7949	-5.2490	-20.0195	-27.7710	-2.8180	19.5062	97.4707	44.2500	225	-8	-60	100547	0.65 
14.372	-0.4663	0.0776	1.1924	4.7607	37.1704	-18.9209	-3.3289	20.5774	93.9276	44.2300	226	0	-60	100547	0.65 
14.403	-0.1680	0.0747	0.6123	19.2871	-19.4702	-16.7847	-2.8345	19.6875	91.9391	44.2400	223	4	-60	100547	0.65 
14.497	-0.3389	0.0078	1.0464	3.2349	18.9819	-38.7573	-1.6974	21.0608	89.2694	44.2500	220	10	-58	100547	0.65 
14.575	-0.1670	-0.1372	1.0103	-0.3662	-21.3623	-23.6206	-1.8182	19.8523	87.2040	44.2500	223	14	-59	100548	0.65 
14.794	-1.0557	0.2583	1.3306	5.8594	-5.1880	27.4048	-2.0490	18.4296	85.0616	44.2200	219	26	-63	100548	0.65 
14.825	-0.5005	-0.3882	0.5596	9.9487	3.7231	35.6445	0.1538	17.2815	89.2419	44.2300	217	22	-70	100547	0.65 
14.903	-0.4272	0.4121	0.8384	-24.1089	-4.8218	12.5122	-0.1263	17.8033	90.1318	44.2300	221	17	-68	100547	0.65 
14.997	-0.3340	-0.3784	1.0200	-2.9907	20.7520	46.8140	-1.2909	18.3087	93.3728	44.2200	226	14	-73	100547	0.65 
15.184	-0.2012	0.1636	0.8667	0.8545	-14.0381	15.6860	-0.4449	17.8088	95.1306	44.2400	227	5	-72	100547	0.65 
15.247	-0.3018	-0.2358	1.0820	-7.4463	3.9063	19.1650	-0.2032	16.6827	97.8717	44.2300	225	0	-71	100547	0.65 
15.325	-0.4277	-0.1729	1.0107	-37.5977	-34.7290	-62.2559	-2.9169	15.7434	97.0807	44.2300	224	0	-75	100547	0.65 
15.419	-0.4932	0.1123	1.1968	8.4839	10.3149	7.9346	-2.7850	15.9796	93.4717	44.2300	227	10	-83	100547	0.65 
15.606	-0.1045	-0.0073	0.6069	19.0430	2.9297	-31.2500	-2.1973	13.8263	89.6979	44.2300	223	14	-85	100547	0.65 
15.731	-0.4321	0.0796	1.0796	8.2397	17.0898	-18.0054	-0.4944	16.5289	87.7368	44.2300	221	22	-85	100547	0.65 
15.778	-0.1860	0.1392	0.8062	1.2207	-10.4980	-4.3945	0.2142	16.0400	86.8689	44.2300	221	26	-82	100547	0.65 
15.825	-0.5024	-0.0068	1.0684	-6.3477	0.4272	6.8970	-0.4120	17.1387	86.0614	44.2300	221	29	-85	100547	0.65 
15.934	-0.3970	-0.1997	0.8379	-12.0239	14.0991	21.6675	0.6592	18.3636	89.1925	44.2100	226	24	-81	100546	0.65 
16.029	-0.3848	0.0361	1.1064	-7.0190	5.6763	29.2358	-0.0879	19.6381	90.5823	44.2200	229	18	-76	100546	0.65 
16.184	-0.3540	-0.1255	0.9097	-0.6714	14.3433	1.0986	-0.7416	20.3687	91.9116	44.2200	233	9	-76	100545	0.65 
16.247	-0.3408	-0.0415	0.9702	4.5776	2.8687	-19.4092	-1.1591	21.0059	90.4614	44.2300	238	14	-72	100545	0.65 
16.356	-0.3433	-0.0396	0.9614	6.6528	-0.0610	-19.8364	-1.2250	20.9839	88.3521	44.2500	236	16	-73	100546	0.65 
16.466	-0.3643	0.0078	0.9707	4.1504	-0.4272	-16.8457	-1.2964	21.0114	86.1163	44.2500	233	22	-72	100546	0.65 
16.575	-0.3408	0.0112	0.9639	2.5635	-2.3193	-10.2539	-1.4063	20.8026	84.5837	44.2600	233	24	-70	100546	0.65 
16.653	-0.3584	0.0127	0.9863	-0.5493	0.5493	2.6245	-1.3513	20.7147	84.0729	44.2600	233	27	-74	100546	0.65 
16.763	-0.3501	-0.0103	0.9688	-2.0142	1.3428	9.6436	-1.1646	20.6763	84.6057	44.2600	230	31	-73	100546	0.65 
16.856	-0.3418	-0.0137	0.9624	-3.1738	-1.6479	12.6343	-0.9888	20.5994	85.6165	44.2600	232	24	-70	100546	0.65 
16.950	-0.3418	-0.0356	0.9673	-2.5635	-0.1831	10.3760	-0.9174	20.5115	86.7041	44.2600	231	23	-74	100546	0.65 
17.029	-0.3525	-0.0244	0.9727	-1.3428	0.7935	5.2490	-0.8954	20.5499	87.3523	44.2700	233	22	-71	100546	0.65 
17.169	-0.3413	-0.0225	0.9609	-0.1831	2.0142	6.4087	-0.7416	20.5829	87.8137	44.2600	237	18	-73	100546	0.65 
17.248	-0.3516	-0.0146	0.9614	0.3052	0.6104	-1.3428	-0.6702	20.6598	87.8687	44.2600	239	19	-71	100546	0.65 
17.388	-0.3472	-0.0020	0.9653	0.1831	-0.6714	0.9155	-0.5768	20.5829	87.7148	44.2700	234	19	-67	100546	0.65 
17.481	-0.3472	0.0078	0.9702	-0.1831	-0.9155	-0.1221	-0.5328	20.4675	87.5555	44.2600	235	20	-65	100546	0.65 
17.575	-0.3433	-0.0107	0.9697	-0.4883	-1.2817	0.4883	-0.4889	20.3192	87.5226	44.3000	235	17	-68	100546	0.65 
17.685	-0.3398	0.0112	0.9697	-0.9766	-2.2583	1.5259	-0.5493	20.1160	87.3743	44.2900	233	20	-68	100546	0.65 
17.794	-0.3325	-0.0117	0.9688	-1.4648	-1.7700	1.3428	-0.5658	19.8962	87.4457	44.2700	232	18	-73	100546	0.65 
17.857	-0.3438	-0.0161	0.9727	-0.9766	-0.1221	-0.9766	-0.6757	19.7864	87.3688	44.3000	234	19	-72	100546	0.65 
18.013	-0.3428	-0.0254	0.9746	-0.8545	-0.6714	-5.3101	-0.9283	19.6820	86.8414	44.2900	233	19	-72	100547	0.65 
18.091	-0.3350	-0.0146	0.9741	-1.6479	-3.1128	-2.5635	-1.1865	19.4568	86.2701	44.3000	232	20	-70	100547	0.65 
18.200	-0.3271	-0.0244	0.9771	-1.0986	-1.3428	-1.5869	-1.3403	19.2041	86.0394	44.2900	232	21	-72	100547	0.65 
18.278	-0.3306	-0.0161	0.9731	-0.8545	-0.3052	1.9531	-1.4227	19.0448	85.8636	44.3000	234	25	-70	100547	0.65