StartTime: 2017-07-12 15:33:02.443
Time(s)	ax(g)	ay(g)	az(g)	wx(deg/s)	wy(deg/s)	wz(deg/s)	AngleX(deg)	AngleY(deg)	AngleZ(deg)	T(°)	hx	hy	hz	Pressure(Pa)	Altitude(m) 
47.832	-1.0464	-0.0522	1.9058	1.2817	0.9155	-0.2441	-0.7031	28.6908	118.2953	43.1100	124	-118	221	100753	0.48 
47.942	-1.0308	-0.0479	1.8638	1.2207	-1.9531	1.1597	-0.5383	28.4436	118.3118	43.1400	122	-119	225	100753	0.48 
48.045	-1.0518	-0.0513	1.8892	-0.8545	1.2207	0.9155	-0.4944	28.5205	118.4381	43.1000	120	-119	226	100753	0.48 
48.178	-1.0396	-0.0688	1.8984	0.0610	1.4648	-1.4038	-0.6372	28.6304	118.2733	43.1300	121	-119	223	100752	0.48 
48.241	-1.0356	-0.0615	1.8843	-1.0986	0.7324	0.2441	-0.8075	28.7128	118.1250	43.1000	121	-117	224	100753	0.48 
48.366	-1.0332	-0.0547	1.8774	0.0000	-0.4883	1.0376	-0.8514	28.7677	118.1305	43.1200	121	-115	221	100753	0.48 
48.444	-1.0444	-0.0532	1.8813	-0.8545	0.7324	0.7324	-0.8789	28.7567	118.2019	43.1200	125	-117	224	100753	0.48 
48.584	-1.0356	-0.0625	1.8940	-0.9155	-1.5259	0.1221	-0.9558	28.7238	118.1964	43.1200	122	-116	224	100753	0.48 
48.663	-1.0576	-0.0615	1.9033	-1.1597	-3.7842	0.5493	-1.0437	28.5150	118.2404	43.1300	122	-119	223	100753	0.48 
48.788	-1.0562	-0.0630	1.9116	-0.5493	-10.2539	1.8311	-1.0657	27.8119	118.3392	43.1400	120	-119	220	100753	0.48 
48.850	-1.0610	-0.0601	1.8906	-2.8076	-19.5313	-2.6855	-1.2360	26.3507	118.4161	43.1300	117	-119	216	100753	0.48 
48.991	-0.9888	-0.0537	1.8853	-5.1880	-36.9873	-2.1362	-1.7249	23.6975	118.2404	43.1200	112	-116	209	100753	0.48 
49.164	-0.9214	-0.0562	1.8745	-11.5967	-55.8472	5.7373	-2.3236	19.2920	118.5699	43.1400	99	-112	199	100753	0.48 
49.227	-0.7920	-0.0684	1.7988	-17.1509	-66.3452	8.9722	-3.4387	13.7439	119.9323	43.1400	84	-110	183	100753	0.48 
49.274	-0.6626	-0.1577	1.7612	-21.6064	-67.9932	13.6719	-5.1746	7.7563	122.1130	43.1200	57	-109	163	100753	0.48 
49.445	-0.5234	-0.1870	1.7949	-23.4375	-68.5425	17.5171	-7.3169	2.0160	124.7278	43.1300	33	-106	150	100753	0.48 
49.570 
49.633	-0.2603	-0.3652	1.5889	-22.2778	-57.9224	15.9912	-12.6508	-8.2397	133.3246	43.1500	-14	-93	135	100753	0.48 
49.664	-0.2324	-0.3979	1.5342	-21.6064	-59.0210	7.5684	-15.7104	-12.6013	138.5651	43.1700	-32	-89	128	100753	0.48 
49.839	-0.1138	-0.3672	1.3604	-18.8599	-49.9878	-7.6294	-18.7372	-16.5894	143.9868	43.1900	-57	-77	126	100753	0.48 
49.983	-0.1714	-0.3833	1.2969	-16.1743	-43.0908	3.4790	-21.2750	-19.0942	149.2328	43.1700	-73	-72	123	100753	0.48 
50.044	-0.1396	-0.3955	1.2407	-10.1318	-9.1553	-1.3428	-24.1040	-19.8798	155.8356	43.1700	-84	-67	129	100753	0.48 
50.076	-0.1953	-0.4058	1.2871	-0.7324	3.7842	-0.7324	-25.5652	-18.6493	161.1584	43.1800	-91	-68	129	100752	0.48 
50.252	-0.1494	-0.3984	1.3267	2.3804	8.2397	-1.9531	-26.0925	-16.5234	165.6683	43.1800	-87	-67	130	100752	0.48 
50.383	-0.2104	-0.3721	1.3784	1.8311	2.9907	-0.6104	-26.0760	-14.6008	169.4916	43.1900	-84	-67	133	100752	0.48 
50.461	-0.1714	-0.3354	1.3525	0.9766	0.7324	-2.6245	-26.0760	-13.2330	173.3533	43.1700	-85	-64	128	100752	0.48 
50.586	-0.1768	-0.3569	1.3408	-0.7324	-0.7324	0.7324	-26.2354	-11.9257	177.3138	43.1700	-84	-66	130	100752	0.48 
50.664	-0.1826	-0.3789	1.3438	0.2441	-0.4883	2.4414	-26.3452	-10.5908	-178.7091	43.1600	-85	-63	128	100752	0.48 
50.789	-0.1807	-0.3804	1.3389	-0.5493	-1.5259	1.8921	-26.4001	-9.4043	-174.8199	43.1700	-86	-65	126	100751	0.48 
50.852	-0.1660	-0.3521	1.3555	-0.9766	-3.9063	3.9063	-26.3782	-8.3112	-171.2604	43.1500	-86	-66	130	100751	0.48 
50.992	-0.2290	-0.3608	1.2793	-0.4883	-14.9536	9.2163	-26.4551	-7.8223	-167.1899	43.1500	-89	-63	126	100751	0.48 
51.054	-0.2251	-0.3677	1.2310	4.2725	3.9673	40.6494	-26.5594	-5.6360	-161.1035	43.1700	-88	-65	125	100751	0.48 
51.195	-0.1528	-0.5581	1.3062	9.2773	28.5034	17.7002	-25.9662	-1.7468	-155.6049	43.1500	-83	-67	126	100752	0.48 
51.288	-0.1694	-0.5781	1.4233	20.2637	53.2837	-11.4136	-24.3842	2.7356	-154.4019	43.1500	-72	-70	127	100751	0.48 
51.398	-0.2622	-0.4238	1.4365	30.4565	63.1104	-16.2964	-22.0770	7.5970	-156.3629	43.1800	-49	-78	129	100751	0.48 
51.492	-0.3604	-0.3438	1.6553	29.8462	63.3545	-8.5449	-19.0613	13.7000	-161.1914	43.1700	-22	-86	128	100752	0.48 
51.601	-0.6079	-0.2744	1.6094	20.3857	49.8657	9.0332	-16.7377	18.8361	-165.2728	43.1700	-5	-96	137	100752	0.48 
51.679	-0.6367	-0.2349	1.7295	19.5313	52.0630	-2.5635	-14.8865	23.4888	-169.8816	43.1800	15	-103	141	100751	0.48 
51.804	-0.6460	-0.2554	1.7646	19.4702	48.4009	0.0610	-13.3044	27.8229	-174.2596	43.1900	36	-108	151	100752	0.48 
51.898	-0.7393	-0.1670	1.8125	18.9819	45.0439	2.2583	-11.8542	31.7834	-178.5718	43.1800	51	-120	159	100751	0.48 
52.007	-0.8105	-0.2021	1.8184	17.7002	45.8984	-2.5635	-10.6073	35.5682	177.5061	43.1800	67	-122	173	100751	0.48 
52.089	-0.8906	-0.1426	1.8774	17.1509	41.8091	-3.0518	-9.7119	38.9520	173.1610	43.1800	85	-123	182	100751	0.48 
52.214	-0.9883	-0.0698	1.8799	15.8691	32.8369	-5.2490	-9.1077	41.7096	168.7500	43.1600	100	-128	198	100751	0.48 
52.323	-1.0342	-0.0493	1.8525	8.1787	21.4844	0.5493	-8.4265	43.4125	165.2618	43.1700	108	-129	203	100750	0.48 
52.448	-1.0693	-0.0493	1.8936	3.4790	10.8643	1.1597	-8.0255	44.0497	162.4493	43.1700	113	-132	212	100751	0.48 
52.511	-1.0659	-0.0508	1.9072	0.6714	-3.8452	-0.6104	-7.7399	43.4015	160.0708	43.1700	118	-133	216	100750	0.48 
52.651	-1.0464	-0.0664	1.9063	-3.4790	-18.0054	-1.3428	-7.7783	41.4349	157.7637	43.1700	117	-133	213	100750	0.48 
52.714	-1.0015	-0.0210	1.8921	-7.9956	-23.9868	-0.9155	-8.0640	38.5345	155.8246	43.1700	111	-131	205	100751	0.48 
52.854	-0.9448	-0.0605	1.8633	-14.2822	-44.1284	9.4604	-8.1793	34.5465	155.1764	43.2000	103	-131	200	100751	0.48 
52.917	-0.8628	-0.1216	1.8311	-17.7002	-47.2412	1.1597	-8.6572	29.8334	155.0885	43.1700	91	-128	184	100751	0.48 
53.047	-0.7061	-0.1792	1.8130	-19.1650	-52.2461	-4.2725	-9.8492	24.5215	154.3524	43.1800	73	-121	173	100751	0.48 
53.122	-0.6177	-0.2119	1.7983	-26.4282	-63.1104	4.5776	-11.5302	18.6273	153.8635	43.2100	53	-119	159	100751	0.48 
53.262	-0.5640	-0.2217	1.6899	-28.5645	-65.4907	20.2637	-13.2220	12.5464	155.7861	43.2000	29	-114	151	100752	0.48 
53.340	-0.4209	-0.2905	1.6704	-25.1465	-53.5889	13.1226	-14.9084	7.5641	157.7472	43.2100	8	-107	141	100752	0.48 
53.481	-0.3042	-0.3784	1.5791	-27.7710	-54.8706	16.7236	-17.0123	3.1641	160.2356	43.2300	-13	-95	132	100751	0.48 
53.543	-0.3237	-0.3887	1.4639	-26.4282	-51.5747	13.4277	-19.5172	-0.9448	164.1193	43.2300	-35	-86	126	100752	0.48 
53.700	-0.1919	-0.4946	1.4565	-18.3716	-37.6587	-5.3711	-21.7749	-4.5099	168.1073	43.2100	-51	-80	129	100752	0.48 
53.840	-0.1846	-0.4243	1.3823	-14.7705	-21.1182	-21.7896	-23.6316	-7.4103	171.7273	43.2400	-69	-72	126	100751	0.48 
53.903	-0.3164	-0.4399	1.4048	-14.8926	-26.5503	-10.8643	-25.2026	-8.7561	175.3308	43.2300	-75	-70	126	100751	0.48 
54.058	-0.1479	-0.4648	1.2227	-8.4839	-13.4888	-7.9346	-26.7352	-10.3546	179.4507	43.2400	-86	-66	129	100751	0.48 
54.120	-0.1509	-0.4238	1.1914	-1.8311	0.3662	-3.5400	-27.4384	-10.1074	-176.6492	43.2300	-93	-64	129	100751	0.48 
54.151	-0.1812	-0.4009	1.2866	5.1880	7.6904	-4.5776	-27.2241	-8.7012	-173.5016	43.2300	-93	-61	130	100751	0.48 
54.308	-0.1890	-0.3638	1.3354	0.5493	1.7090	-1.6479	-26.7188	-7.2125	-170.5792	43.2300	-94	-63	130	100751	0.48 
54.448	-0.1641	-0.3491	1.3364	-0.1221	-0.3662	-1.0376	-26.4551	-6.1688	-167.5140	43.2300	-92	-65	130	100751	0.48 
54.558	-0.1489	-0.3857	1.2808	0.0000	-1.0376	1.7700	-26.2903	-5.3558	-164.1412	43.2200	-91	-63	130	100752	0.48 
54.573	-0.1606	-0.3936	1.2979	0.0610	4.0283	1.1597	-26.1035	-4.2737	-161.1090	43.2200	-90	-69	127	100752	0.48 
54.714	-0.1675	-0.3667	1.3291	0.6714	1.5259	0.3052	-25.7465	-3.1586	-158.4888	43.2200	-89	-67	128	100751	0.48 
54.766	-0.2495	-0.3384	1.3433	-1.5259	-14.2212	14.4043	-25.5432	-2.4115	-154.9072	43.2200	-89	-62	126	100752	0.48 
54.942	-0.1694	-0.3506	1.1953	-2.1973	-3.3569	33.9355	-25.4718	-1.7303	-149.8096	43.2100	-90	-65	129	100752	0.48 
55.046	-0.1343	-0.5264	1.2490	11.2305	28.0151	12.6953	-25.4718	1.4392	-143.2013	43.2300	-90	-63	129	100752	0.48 
55.110	-0.1914	-0.5938	1.2954	18.1274	50.1099	4.0894	-24.0161	5.5536	-141.3831	43.2300	-80	-64	128	100752	0.48 
55.298	-0.2114	-0.4434	1.4888	25.9399	58.4717	-6.5308	-21.9672	10.8490	-142.4048	43.2100	-59	-72	131	100751	0.48 
55.373	-0.3374	-0.3960	1.5537	35.9497	73.7305	-14.5264	-19.4238	16.3147	-145.9589	43.2100	-34	-80	128	100752	0.48 
55.498	-0.3179	-0.2886	1.6396	36.7432	67.6270	-19.4092	-16.7816	21.8848	-151.8915	43.2100	-15	-90	132	100751	0.48 
55.560	-0.5195	-0.3003	1.7646	29.8462	56.5186	2.3804	-14.3866	27.0538	-157.0386	43.2200	11	-104	141	100751	0.48 
55.701	-0.6323	-0.2349	1.7905	27.3438	47.6074	-4.3335	-12.4805	31.4703	-162.3889	43.2300	31	-111	148	100751	0.48 
55.748	-0.7383	-0.1792	1.8203	24.7192	45.5933	-2.6855	-11.0358	35.3101	-167.6459	43.2200	45	-120	161	100750	0.48 
55.904	-0.7954	-0.1382	1.8213	23.0713	46.6919	-5.1880	-9.7504	38.9191	-172.7325	43.2100	64	-126	170	100750	0.48 
55.990	-0.8828	-0.0786	1.8804	20.3247	46.5698	-3.7842	-8.8000	42.5830	-177.6874	43.2100	82	-129	182	100750	0.48 
56.122	-0.9551	-0.0786	1.8999	18.0054	41.5039	-7.6904	-8.3331	45.9009	177.3303	43.2000	98	-131	197	100750	0.48 
56.153	-1.0469	-0.0684	1.8389	11.5967	31.0059	-4.1504	-8.0585	48.2794	172.8644	43.2100	110	-133	211	100750	0.48 
56.300	-1.1284	-0.0005	1.8887	6.6528	18.7988	2.3804	-7.9431	49.6198	168.8873	43.2000	119	-137	220	100750	0.48 
56.369	-1.1440	-0.0020	1.8882	2.8076	7.0801	4.5776	-7.5256	49.7076	166.0693	43.2100	127	-137	225	100750	0.48 
56.538	-1.1274	-0.0137	1.8711	0.7324	-2.0142	0.0610	-7.1411	48.7573	163.7073	43.2200	124	-139	228	100750	0.48 
56.600	-1.1187	-0.0127	1.9058	-3.8452	-13.9771	0.3052	-7.3004	46.9666	161.0815	43.2100	125	-137	223	100750	0.48 
56.753	-1.0952	-0.0005	1.8926	-8.2397	-24.9634	-3.3569	-7.7618	44.0002	158.7799	43.2400	121	-138	223	100750	0.48 
56.785	-1.0313	-0.0303	1.8740	-11.7188	-34.1797	0.0000	-8.3606	40.2374	156.9232	43.2300	114	-137	215	100750	0.48 
56.938	-0.9438	-0.0723	1.8472	-16.2354	-47.2412	-3.2959	-9.1901	35.4803	155.3741	43.2500	104	-132	204	100750	0.48 
56.985	-0.8647	-0.0835	1.8301	-21.3013	-54.6875	2.0142	-10.1404	30.1849	154.5941	43.2400	90	-129	189	100751	0.48 
57.138	-0.7437	-0.1313	1.8506	-23.3154	-62.1948	-0.4883	-11.3818	24.2853	154.2371	43.2300	71	-123	179	100751	0.48 
57.201	-0.6084	-0.2041	1.8101	-24.6582	-66.5894	4.2725	-12.8485	17.6166	154.6875	43.2600	50	-119	160	100751	0.48 
57.407	-0.4766	-0.1924	1.7046	-27.7100	-65.4907	10.9253	-14.5239	11.1951	156.1652	43.2600	23	-110	147	100751	0.48 
57.485	-0.3452	-0.3247	1.6465	-30.4565	-64.7583	16.8457	-16.5948	5.4712	158.7854	43.2600	1	-99	136	100750	0.48 
57.539	-0.2510	-0.3813	1.4897	-31.9214	-67.6270	23.1323	-19.1931	0.3186	163.0591	43.2600	-22	-92	127	100750	0.48 
57.623	-0.0991	-0.4746	1.3545	-22.5220	-51.5137	-5.8594	-21.9781	-4.3341	168.3600	43.2600	-48	-83	125	100750	0.48 
57.770	-0.1050	-0.4634	1.3467	-15.0146	-24.4751	-16.3574	-24.0381	-7.3279	172.7271	43.2600	-65	-73	125	100750	0.48 
57.955	-0.2554	-0.4038	1.3315	-13.6108	-34.5459	-7.7515	-25.6311	-8.9594	176.0559	43.2400	-77	-68	126	100750	0.48 
58.007	-0.1064	-0.3828	1.2300	-4.6997	-14.4653	-7.1411	-26.7682	-10.5469	-179.8737	43.2700	-88	-63	126	100750	0.48 
58.024	-0.1870	-0.4346	1.2441	-2.3804	-3.9063	0.0000	-27.3065	-10.2887	-175.5780	43.2700	-90	-65	127	100750	0.48 
58.171	-0.1479	-0.4043	1.3013	1.5259	4.9438	-4.0894	-27.3230	-9.0088	-172.1887	43.2700	-98	-63	131	100750	0.48 
58.339	-0.1792	-0.3452	1.3247	1.2207	2.7466	-6.0425	-27.0374	-7.7509	-169.2828	43.2700	-97	-63	127	100749	0.48 
58.386	-0.1592	-0.3711	1.2969	-0.1831	-4.0283	1.3428	-26.7682	-6.8884	-166.0693	43.2500	-96	-62	129	100749	0.48 
58.555	-0.1567	-0.3799	1.2920	-0.2441	-0.1831	0.9155	-26.6309	-6.0370	-162.7515	43.2500	-98	-66	127	100749	0.48 
58.624	-0.1533	-0.3633	1.2896	0.0610	1.4648	1.2207	-26.4111	-5.0043	-159.6918	43.2300	-97	-64	126	100749	0.48 
58.709	-0.1533	-0.3687	1.2979	0.5493	0.8545	2.1973	-26.0706	-3.9716	-156.8903	43.2400	-93	-65	128	100749	0.48 
58.787	-0.1748	-0.3169	1.3066	-2.0752	-3.4790	14.2822	-25.7520	-2.9718	-153.8470	43.2200	-95	-70	129	100749	0.48 
58.940	-0.1201	-0.3774	1.2383	2.1973	1.3428	18.1274	-26.1090	-1.4777	-147.1399	43.2200	-97	-65	127	100749	0.48 
59.005	-0.1904	-0.5234	1.1738	6.4087	20.3857	42.7246	-25.5652	1.1700	-142.3883	43.2100	-93	-61	125	100749	0.48 
59.171	-0.1265	-0.5894	1.3379	20.2637	55.7251	0.6714	-24.1479	5.5481	-139.6637	43.2300	-81	-67	130	100749	0.48 
59.225	-0.2520	-0.5288	1.4580	28.3203	59.4482	-12.9395	-22.1265	10.6512	-140.6799	43.2300	-66	-71	129	100749	0.48 
59.387	-0.3267	-0.3662	1.5430	36.4380	70.5566	-16.7236	-19.5557	15.8148	-144.5911	43.2300	-42	-83	127	100749	0.48 
59.425	-0.5405	-0.3564	1.6567	34.7290	68.1152	-16.2354	-17.1002	22.0001	-150.8533	43.2200	-12	-96	129	100750	0.48 
59.572	-0.5786	-0.2676	1.6763	29.3579	63.9648	-18.2495	-15.3040	26.9495	-157.6648	43.2200	11	-105	140	100749	0.48 
59.603	-0.6460	-0.1836	1.8389	25.8789	59.8755	-8.3008	-14.0570	31.6736	-164.1522	43.2300	32	-110	149	100749	0.48 
59.726	-0.7124	-0.1729	1.8838	22.5220	52.6123	-8.9722	-13.0682	35.8594	-169.9750	43.2400	52	-115	160	100749	0.48 
59.822	-0.8403	-0.0684	1.8701	15.1978	44.2505	-2.3804	-12.3376	39.3915	-175.3143	43.2300	72	-120	173	100749	0.48 
59.968	-0.9321	-0.1294	1.8760	14.2212	36.4380	-4.5776	-11.4697	42.0612	-179.5441	43.2600	86	-127	183	100749	0.48 
60.170	-0.9805	-0.0713	1.8486	10.4370	26.2451	-8.3008	-11.2994	43.7860	175.4242	43.2600	98	-125	198	100749	0.48 
60.218	-1.0122	-0.0371	1.8672	4.3945	16.9678	-5.4321	-11.7224	44.5660	170.5573	43.2500	108	-128	204	100749	0.48 
60.234	-0.9810	-0.0898	1.9185	0.7935	3.6011	-1.7700	-11.9147	44.5496	166.8988	43.2600	113	-126	208	100748	0.48 
60.377	-0.9595	-0.0757	1.8984	-0.8545	0.2441	0.1831	-11.8378	43.5883	164.1962	43.2600	115	-126	210	100749	0.48 
60.442	-0.9814	-0.0620	1.8999	-0.6104	-4.3945	2.0752	-11.5851	42.2479	161.7902	43.2500	117	-126	211	100749	0.48 
60.573	-0.9766	-0.0762	1.8843	-0.3052	-4.7607	2.0142	-11.1676	40.8197	159.7522	43.2500	110	-128	210	100749	0.48 
60.742	-0.9531	-0.0654	1.8862	-1.0376	-3.6011	2.6245	-10.8160	39.6332	157.7637	43.2600	111	-127	207	100749	0.48 
60.789	-0.9512	-0.0762	1.8813	-0.5493	-3.2959	0.3052	-10.5029	38.5126	155.8081	43.2500	108	-125	204	100749	0.48 
60.857	-0.9268	-0.0942	1.8857	-1.5259	-4.5776	2.1973	-10.3271	37.3700	153.8086	43.2500	108	-125	206	100749	0.48 
61.026	-0.9287	-0.0801	1.8853	0.0000	-1.7700	-0.2441	-10.0140	36.3538	152.0563	43.2700	106	-125	205	100749	0.48 
61.083	-0.9199	-0.0786	1.8755	0.1831	-1.5259	1.2207	-9.6680	35.4913	150.3424	43.2700	106	-126	204	100749	0.48 
61.227	-0.9214	-0.0781	1.8911	0.0000	-1.2817	0.4272	-9.2725	34.7882	148.8593	43.2800	106	-122	203	100749	0.48 
61.411	-0.9136	-0.0796	1.8794	0.4883	-1.7700	0.8545	-8.8824	34.0411	147.4200	43.2800	103	-127	202	100749	0.48 
61.474	-0.9175	-0.0801	1.8813	0.4272	-1.1597	1.1597	-8.4869	33.3875	146.1017	43.2800	106	-126	200	100749	0.48 
61.559	-0.9248	-0.0703	1.8950	0.6104	-1.5259	0.4272	-8.1189	32.8271	144.7943	43.2800	103	-122	201	100749	0.48 
61.668	-0.9141	-0.0811	1.8867	0.3052	-0.4272	1.2817	-7.7728	32.3163	143.5583	43.2800	106	-123	203	100749	0.48 
61.824	-0.9063	-0.0742	1.8774	0.0610	-0.9155	0.7324	-7.4597	31.8658	142.3553	43.2900	105	-125	200	100749	0.48 
61.871	-0.9165	-0.0728	1.8945	0.0000	-0.7935	0.3662	-7.1411	31.4264	141.2952	43.3000	105	-124	198	100749	0.48 
62.028	-0.9160	-0.0723	1.8931	-0.1221	-0.5493	0.6714	-6.8884	31.0254	140.2350	43.3200	103	-125	197	100749	0.48 
62.091	-0.9111	-0.0654	1.8828	-0.2441	-1.1597	1.5259	-6.6467	30.6738	139.2792	43.3200	102	-123	201	100749	0.48 
62.224	-0.9028	-0.0703	1.8896	-0.1831	-1.2207	0.4272	-6.3940	30.2838	138.4497	43.3000	105	-125	199	100749	0.48 
62.318	-0.8994	-0.0811	1.8779	0.7324	-1.3428	0.0610	-6.1029	29.8279	137.6807	43.3100	101	-124	197	100749	0.48 
62.584	-0.9019	-0.0557	1.8916	0.7324	4.5776	-1.6479	-5.9106	29.6631	136.7358	43.3200	101	-125	199	100749	0.48 
62.631	-0.9033	-0.0698	1.8687	-1.0376	-2.6855	2.1362	-5.7184	29.3884	136.0767	43.3200	103	-125	198	100749	0.48 
62.662	-0.8926	-0.0684	1.8843	-0.7324	-0.6104	2.1362	-5.5042	29.1412	135.4834	43.3300	101	-127	197	100749	0.48 
62.678	-0.9038	-0.0894	1.8960	-0.6104	-1.2817	3.7842	-5.2295	28.9380	135.1483	43.3400	103	-128	196	100749	0.48 
62.849	-0.8989	-0.0757	1.8818	0.0000	-3.3569	-0.7935	-4.9988	28.5480	134.6594	43.3400	102	-128	198	100749	0.48 
63.006	-0.9111	-0.0806	1.8896	-2.1973	-2.6245	1.6479	-4.9603	28.2184	133.9233	43.3400	101	-124	197	100749	0.48 
63.069	-0.8989	-0.0767	1.8887	-0.9766	-0.6104	1.4648	-4.8779	27.9822	133.3411	43.3300	102	-126	199	100749	0.48 
63.097	-0.8940	-0.0757	1.8906	-0.5493	-0.3052	2.1362	-4.7296	27.8394	132.9510	43.3300	101	-125	196	100749	0.48 
63.257	-0.8877	-0.0854	1.8882	-0.3052	0.1221	0.9155	-4.5374	27.6636	132.5720	43.3500	101	-125	197	100749	0.48 
63.445	-0.8896	-0.0752	1.8828	0.1831	-1.7090	-0.4272	-4.4055	27.4054	132.1161	43.3500	99	-125	196	100749	0.48 
63.507	-0.8540	-0.0981	1.8481	0.0610	-3.1738	-0.3662	-4.1693	26.9055	131.7206	43.3500	101	-130	194	100750	0.48