13
StartTime: 2017-07-12 15:27:58.684
Time(s)	ax(g)	ay(g)	az(g)	wx(deg/s)	wy(deg/s)	wz(deg/s)	AngleX(deg)	AngleY(deg)	AngleZ(deg)	T(°)	hx	hy	hz	Pressure(Pa)	Altitude(m) 
111.358	-1.2280	0.0620	1.8550	-0.5493	1.0986	-0.2441	1.6974	30.7452	112.5000	40.9000	117	-91	235	100775	0.46 
111.468	-1.2354	0.0454	1.8540	-0.6714	1.8921	1.0986	1.6644	31.0693	112.6483	40.9100	118	-88	235	100775	0.46 
111.590	-1.2637	0.0493	1.8633	-0.4272	1.7700	1.5869	1.6864	31.4374	112.8131	40.9200	120	-89	235	100775	0.46 
111.637	-1.2529	0.0444	1.8457	0.1221	2.9907	0.1831	1.7084	31.7175	112.9010	40.9200	116	-87	237	100775	0.46 
111.778	-1.2627	0.0493	1.8511	0.3052	1.0376	-1.2817	1.6974	32.0306	112.8406	40.9200	120	-92	240	100775	0.46 
111.997	-1.2500	0.0483	1.8525	0.4272	0.8545	-2.0142	1.6315	32.2174	112.6373	40.9200	120	-88	240	100775	0.46 
112.075	-1.2588	0.0508	1.8540	0.0000	0.3662	-0.6714	1.5765	32.3987	112.4945	40.9400	118	-89	239	100774	0.46 
112.200	-1.2554	0.0566	1.8433	-0.2441	2.1973	0.7935	1.5436	32.6349	112.4670	40.9200	120	-91	242	100774	0.46 
112.200	-1.2544	-0.0005	1.8838	1.5869	4.2114	-1.7700	1.5106	33.0084	112.4670	40.9400	121	-85	241	100774	0.46 
112.371	-1.1377	0.0000	1.8818	2.1973	2.3193	-1.0376	1.4227	32.8986	111.9836	40.9500	120	-87	239	100774	0.46 
112.434	-1.2168	0.0054	1.8267	5.0659	14.2822	-0.7324	1.8127	33.7830	112.0166	40.9400	120	-88	241	100774	0.46 
112.465	-1.1968	0.0103	1.8228	7.5684	15.3809	-2.0142	2.3511	35.3265	111.9012	40.9400	124	-86	245	100774	0.46 
112.607	-1.1631	0.2192	1.7446	4.3945	27.0386	8.9111	3.2025	37.2931	112.0166	40.9600	129	-86	252	100774	0.46 
112.764	-1.3086	0.0889	1.9404	9.8877	28.3203	25.3296	5.3284	40.6549	114.6753	40.9600	134	-91	262	100774	0.46 
112.857	-1.1895	0.0850	1.7544	5.8594	35.9497	15.7471	7.9761	42.6324	117.5867	40.9500	138	-100	271	100774	0.46 
112.982	-1.2500	0.1313	2.2051	10.1318	17.1509	0.6104	9.8053	44.9011	119.4379	40.9500	144	-104	286	100775	0.46 
113.045	-1.2666	0.4082	2.0498	-4.1504	5.3101	-24.1699	8.1299	44.9835	116.5594	40.9300	149	-101	287	100776	0.46 
113.186	-1.2480	0.0269	1.0464	-21.4844	-5.7983	23.0103	7.2125	42.3468	117.3615	40.9000	152	-98	284	100776	0.46 
113.262	-2.5776	0.0581	3.2852	-17.7002	103.8208	12.3901	7.7673	48.2739	121.1133	40.9100	159	-108	291	100776	0.46 
113.394	-1.7256	-0.2485	2.7305	26.3672	-92.4072	-153.6255	-1.5106	46.7249	108.7042	40.9000	165	-98	303	100776	0.46 
113.458	-1.1553	0.2764	0.4326	35.7056	-44.1895	-15.1367	-4.4495	39.2102	100.6732	40.8700	150	-70	275	100776	0.46 
113.598	-1.3203	0.3770	1.1118	-12.6953	-4.2725	51.3306	-0.3790	38.6060	104.2163	40.8400	146	-65	260	100776	0.46 
113.668	-1.1196	0.0562	2.4697	8.3008	-30.5786	88.5010	4.6033	44.0881	114.0601	40.8500	158	-81	279	100777	0.46 
113.791	-1.1294	0.0381	1.2305	-26.2451	-131.4087	36.2549	8.6572	38.0786	121.7285	40.8200	161	-107	274	100777	0.46 
113.869	-0.8384	-0.1353	0.8662	-24.3530	13.3667	-18.6768	5.1526	34.4586	121.4648	40.8100	149	-115	243	100777	0.46 
114.026	-3.0527	-0.0688	4.0903	-18.8599	93.5059	-34.1187	4.4604	43.2147	120.5530	40.8000	158	-117	253	100777	0.46 
114.088	-1.5400	-0.1333	1.5151	19.4702	-113.0981	-81.2988	-1.3403	39.5233	109.6600	40.7900	163	-104	265	100778	0.46 
114.213	-1.0347	0.1704	0.4043	34.6680	-20.7520	30.8228	0.4504	35.4803	105.4028	40.7400	155	-81	228	100778	0.46 
114.291	-1.7793	0.5830	2.8799	-41.9922	238.3423	15.5029	3.2135	40.6055	110.1379	40.7600	157	-93	236	100778	0.46 
114.416	-1.8574	0.2207	3.3071	-31.7993	13.0615	110.1685	9.1626	43.0005	119.8004	40.7600	173	-108	259	100778	0.46 
114.494	-1.1045	-0.2847	-0.1084	-42.2363	-41.2598	10.3149	7.5476	32.8986	122.4481	40.7300	156	-127	239	100778	0.46 
114.629	-1.0117	-0.0957	1.2358	-16.2354	18.9209	-37.6587	2.1643	34.8157	118.8666	40.7400	156	-121	223	100778	0.46 
114.722	-0.9297	-0.0811	2.9712	-20.2637	-32.4707	-63.5376	0.0385	42.6764	115.2795	40.7100	171	-111	244	100778	0.46 
114.847	-1.1226	0.2598	0.7354	22.0337	-81.8481	-39.5508	-5.4547	35.6836	104.1119	40.6900	168	-82	237	100778	0.46 
114.926	-0.8145	-0.1421	1.0225	19.7144	14.2212	6.9580	-1.4667	36.0352	104.3921	40.6800	155	-67	215	100778	0.46 
115.051	-1.9443	0.2954	3.2983	19.1040	-60.2417	87.2192	2.4774	45.0330	110.5499	40.6800	165	-73	235	100779	0.46 
115.222	-1.0000	0.1650	1.6172	-22.3999	-146.0571	49.3774	8.9539	38.7927	121.7065	40.6900	170	-95	245	100779	0.45 
115.285	-0.9009	-0.0757	0.9482	-29.4189	27.2827	-29.3579	6.1963	35.2826	122.5635	40.6600	152	-105	216	100779	0.46 
115.426	-2.0356	-0.4355	3.8984	29.6021	199.2188	-8.8501	4.9658	41.1548	122.2504	40.6500	149	-99	221	100779	0.46 
115.504	-1.6895	-0.2041	2.6055	32.1655	-116.5161	-136.5967	-3.2080	40.8472	109.0668	40.6500	149	-81	244	100779	0.45 
115.627	-1.2827	0.1675	0.2217	38.0249	7.0801	1.1597	-4.3835	35.3210	102.3981	40.6300	119	-60	224	100780	0.45 
115.705	-1.1563	0.6489	1.3306	-20.7520	96.4966	20.0195	-1.8347	38.6554	103.3649	40.6100	109	-65	222	100780	0.45 
115.815	-1.8984	0.1846	2.9946	-35.5835	-5.8594	127.2583	4.9823	43.3081	113.8403	40.6200	124	-83	245	100780	0.45 
115.893	-1.3149	-0.3706	-0.2246	-31.4331	-40.1001	41.0767	6.4160	34.1895	121.2122	40.5700	113	-107	230	100779	0.45 
116.065	-0.8052	-0.0156	1.1094	-32.7759	12.6343	-3.4180	2.4335	36.7767	120.1025	40.5500	103	-112	224	100779	0.45 
116.143	-0.7749	-0.0728	2.7168	0.0000	-48.5229	-110.1074	0.4779	44.3243	117.1307	40.5700	118	-120	244	100779	0.45 
116.252	-0.6401	0.3262	0.4858	10.4980	-123.3521	-56.7017	-6.8280	35.0409	103.7988	40.5400	111	-96	237	100779	0.45 
116.330	-0.9683	-0.2212	1.2881	14.3433	14.7705	-11.0474	-4.3176	37.1777	102.3431	40.4900	106	-90	223	100779	0.45 
116.518	-3.9023	0.4673	5.2549	-9.2163	81.2988	115.1123	-1.9171	46.7908	106.4026	40.5100	115	-90	238	100779	0.45 
116.660	-1.3384	0.0684	2.1479	-10.5591	-129.0894	82.4585	8.1244	41.0779	121.7999	40.5200	125	-115	253	100780	0.45 
116.723	-1.2505	-0.1392	0.2100	-23.1934	19.4092	22.4609	7.0258	33.8379	123.7939	40.4900	109	-126	228	100780	0.45 
116.754	-1.6162	-0.1113	1.5811	29.5410	112.7319	45.9595	6.1688	37.9413	125.3375	40.4900	111	-129	226	100779	0.46 
116.879	-1.2231	-0.5933	3.4756	17.3950	44.0063	-116.1499	2.4664	44.4232	120.5145	40.5100	129	-127	254	100779	0.46 
117.035	-0.8203	0.3569	0.1304	26.5503	-87.5244	-49.6826	-4.4165	34.2059	107.3584	40.5000	111	-94	232	100778	0.46 
117.114	-0.9277	-0.1904	1.2998	-1.3428	22.5220	11.0474	-1.5546	37.8424	108.0505	40.4800	105	-85	217	100778	0.46 
117.238	-3.1016	-0.0024	4.2886	26.0620	-13.1836	62.6221	-0.5988	47.1863	109.6271	40.4600	116	-83	235	100778	0.46 
117.317	-1.5322	0.1450	2.2446	11.1084	-129.1504	76.0498	6.2677	41.3141	118.1909	40.4700	125	-88	242	100778	0.46 
117.473	-1.0649	-0.2725	-0.2417	-17.1509	-20.6299	-38.8184	3.4827	31.8054	116.6034	40.4500	107	-97	215	100778	0.46 
117.535	-1.3647	0.2207	1.0942	-12.0239	80.9326	-16.2354	0.6921	35.2441	114.1315	40.4400	106	-88	206	100778	0.46 
117.694	-0.7158	-0.2031	1.8647	21.9116	-47.5464	-6.1646	4.9713	40.7153	119.6356	40.4500	128	-97	231	100778	0.46 
117.757	-1.0391	0.3862	1.0864	-23.9258	-62.0117	80.5664	5.6580	38.5730	119.3610	40.4400	123	-95	221	100777	0.46 
117.897	-0.6948	-0.4785	0.8110	-33.4473	-3.5400	130.6152	12.9968	34.0741	135.2911	40.4500	118	-116	210	100777	0.46 
117.960	-0.6890	0.7061	1.7969	8.2397	-174.4995	-50.5981	12.8595	43.1378	137.1643	40.4500	134	-139	236	100777	0.46 
118.085	-1.8770	0.3052	2.3604	15.4419	25.3296	-24.7803	14.1943	45.9229	139.7681	40.4500	138	-136	238	100776	0.46 
118.163	-1.3965	-0.0562	1.5625	3.1128	53.0396	24.3530	16.8036	45.3516	142.7069	40.4300	143	-140	244	100776	0.46 
118.311	-1.2954	0.0049	1.6060	2.9297	14.0381	-0.6714	17.1112	46.9995	142.7618	40.4400	150	-147	255	100776	0.46 
118.383	-1.3511	0.0752	1.7544	5.9204	0.0610	-15.3809	15.8258	48.1860	140.2570	40.4500	151	-146	261	100776	0.46 
118.475	-1.4180	0.0815	1.8125	0.3052	0.9766	-5.9814	13.9911	48.4497	137.2247	40.4500	154	-140	264	100776	0.46 
118.583	-1.4170	0.0278	1.7896	1.1597	2.1973	-0.3662	13.1451	48.0432	135.9668	40.4800	154	-140	263	100776	0.46 
118.712	-1.4116	0.0659	1.7856	2.3804	3.1128	-4.0894	12.2223	47.7686	134.3683	40.4600	157	-138	263	100776	0.46 
118.892	-1.4028	0.0449	1.8057	0.3052	2.5635	-1.1597	11.2115	47.5323	132.8082	40.4700	156	-137	265	100777	0.46 
118.939	-1.4067	0.0571	1.8120	1.5869	2.7466	1.0376	10.8765	47.1753	132.0062	40.4800	156	-138	266	100777	0.46 
119.111	-1.3931	0.0498	1.7920	1.8311	1.8921	1.2817	10.7172	46.8787	131.4569	40.5000	156	-139	268	100777	0.46 
119.142	-1.3940	0.0664	1.8003	0.4272	0.3662	2.7466	10.4700	46.4612	130.9131	40.5000	156	-141	270	100777	0.46 
119.314	-1.3931	0.0684	1.7949	0.3052	0.5493	0.0000	10.0470	45.9833	130.3198	40.5400	157	-139	270	100777	0.46 
119.345	-1.3882	0.0640	1.7959	0.1221	0.6714	-1.0376	9.4373	45.5988	129.4794	40.5100	157	-138	269	100777	0.46 
119.502	-1.3892	0.0542	1.7837	-0.6714	1.3428	-2.1973	8.7122	45.2692	128.5236	40.5400	157	-139	269	100777	0.46 
119.580	-1.4189	0.0527	1.8125	-1.6479	1.4648	-2.0752	7.9266	45.0439	127.6337	40.5500	157	-138	266	100778	0.46 
119.699	-1.4185	0.0459	1.8071	-5.0049	0.4272	4.7607	7.3224	44.7638	127.1667	40.5400	154	-135	267	100778	0.46 
119.777	-1.4189	0.0513	1.7905	-4.6997	2.2583	12.0850	7.2565	44.4452	127.6666	40.5400	157	-138	270	100778	0.46 
119.902	-1.4927	0.1802	1.8667	-8.4839	15.5640	48.7061	9.2285	44.7144	131.0120	40.5400	155	-142	276	100778	0.46 
119.980	-1.4580	0.0908	1.7466	-14.9536	9.8267	72.1436	13.8483	43.7585	139.3616	40.5400	154	-160	275	100778	0.46 
120.105	-1.4766	0.0942	1.7944	-14.9536	12.0239	66.7725	18.1110	42.8137	147.7551	40.5300	145	-179	278	100778	0.46 
120.199	-1.4473	0.0952	1.7783	-12.0239	10.2539	54.7485	21.1487	41.4844	154.4128	40.5300	135	-200	282	100778	0.46 
120.324	-1.3794	0.1157	1.7407	-8.8501	-0.6714	41.3818	22.8735	40.5011	158.4998	40.5400	123	-215	280	100778	0.46 
120.511	-1.3813	0.1611	1.7671	-7.9956	5.4932	26.3672	23.4503	39.7321	160.8508	40.5300	119	-225	277	100778	0.46 
120.558	-1.4258	0.1660	1.7661	-3.3569	6.4087	4.5776	23.0438	39.9957	161.1914	40.5500	111	-230	283	100778	0.46 
120.605	-1.4629	0.1978	1.7856	-1.7090	2.2583	2.1362	22.1429	40.4242	160.1971	40.5700	110	-234	278	100778	0.46 
120.731	-1.4219	0.1479	1.7529	-0.3662	0.2441	-2.5024	21.0333	40.5780	158.7250	40.5600	111	-232	281	100778	0.46 
120.903	-1.4380	0.1636	1.7554	0.9155	-1.4648	-8.2397	19.6930	40.8636	156.6046	40.5600	114	-230	279	100778	0.46 
120.981	-1.4497	0.1523	1.7900	1.1597	-0.4272	-10.4370	18.2593	41.0669	154.3085	40.5800	114	-227	281	100778	0.46 
121.131	-1.4331	0.1655	1.7539	2.6245	-1.5259	-6.3477	16.9849	41.0889	152.0618	40.6000	115	-225	279	100778	0.46 
121.178	-1.4595	0.1670	1.7686	2.8687	-0.2441	-3.6621	16.1774	41.1548	150.4248	40.5900	119	-223	284	100777	0.46 
121.294