14
StartTime: 2017-07-12 15:43:53.362
Time(s)	ax(g)	ay(g)	az(g)	wx(deg/s)	wy(deg/s)	wz(deg/s)	AngleX(deg)	AngleY(deg)	AngleZ(deg)	T(°)	hx	hy	hz	Pressure(Pa)	Altitude(m) 
53.632	-1.1372	0.0283	1.8755	0.1831	1.1597	-1.0986	1.8622	30.7947	60.5951	45.6600	-67	51	270	100737	0.49 
53.632	-1.1431	0.0313	1.8760	-0.8545	1.6479	0.1831	1.8127	30.9155	60.6006	45.6500	-64	55	271	100737	0.49 
53.851	-1.1406	0.0239	1.8765	-0.6104	1.9531	1.4648	1.7633	31.0364	60.7214	45.6600	-66	50	267	100737	0.49 
53.851	-1.1563	0.0181	1.8755	-0.4272	0.6104	1.6479	1.7853	31.1792	60.9961	45.6700	-66	47	268	100737	0.49 
53.992	-1.1406	0.0220	1.8750	-0.7935	0.1221	0.1831	1.7413	31.1957	61.1389	45.6600	-65	47	269	100736	0.49 
54.054	-1.1357	0.0073	1.8726	-0.6714	0.5493	0.5493	1.6370	31.1957	61.2433	45.6600	-67	49	268	100736	0.49 
54.210	-1.1611	-0.0195	1.8687	-0.3662	0.7324	-2.4414	1.4117	31.2891	60.9357	45.6600	-66	52	270	100736	0.49 
54.289	-1.1694	-0.0605	1.8555	1.6479	-3.6011	-9.2773	0.9174	31.3660	59.8755	45.6700	-68	51	269	100736	0.49 
54.414	-1.1592	-0.0410	1.8560	4.8828	-3.8452	-1.4038	0.7196	31.0583	58.8263	45.6800	-71	50	267	100736	0.49 
54.494	-1.0771	0.1172	1.8721	0.4272	14.0381	24.4751	1.8512	31.3989	60.7050	45.6600	-72	51	265	100736	0.49 
54.619	-1.0371	0.0298	2.0439	10.6812	6.3477	15.3809	4.2352	32.7118	63.7097	45.6600	-61	51	265	100737	0.49 
54.712	-0.9775	0.1172	1.8013	12.3901	15.0146	12.3291	6.3391	32.7942	64.8578	45.6800	-55	50	261	100737	0.49 
54.869	-1.0498	0.1436	1.7983	5.4321	12.0850	-1.6479	7.3389	33.9093	65.7861	45.6800	-51	44	259	100737	0.49 
54.915	-1.0557	0.1460	1.8960	-2.1973	8.1787	3.6621	7.6410	34.8761	66.7310	45.6600	-46	46	258	100737	0.49 
55.080	-1.2939	0.1279	2.2349	-8.0566	4.6387	-19.1650	6.4929	35.1672	66.4563	45.6800	-38	45	260	100737	0.49 
55.108	-1.3218	-0.2065	1.5737	-19.4702	-20.9351	-25.9399	5.0262	35.0354	66.9891	45.6600	-36	47	263	100737	0.49 
55.224	-1.4204	0.0640	2.0405	-14.3433	-3.1738	-21.1792	1.5271	35.9088	63.9624	45.6500	-37	48	266	100737	0.49 
55.306	-1.1440	-0.0630	1.5898	-7.9956	-4.2114	-8.0566	-0.3021	34.6014	62.8912	45.6300	-39	51	266	100737	0.49 
55.442	-1.1592	0.0186	1.5923	-5.0659	2.6855	8.3008	-1.0162	34.7223	62.6385	45.6200	-44	54	267	100737	0.49 
55.510	-1.1484	-0.2173	1.9404	0.7324	0.8545	9.5825	-0.1318	35.3320	64.6106	45.6200	-35	50	265	100736	0.49 
55.703	-1.2544	-0.1460	2.2036	13.4277	13.1836	-14.7095	0.2966	34.9860	63.7427	45.6300	-31	53	263	100736	0.49 
55.828	-1.4839	0.4082	1.6802	18.4326	-8.0566	20.2637	1.7303	35.5188	63.6603	45.6300	-32	49	260	100736	0.49 
55.890	-1.3110	0.0103	2.0571	4.6387	-2.7466	28.1372	5.3723	35.7550	68.8293	45.6200	-27	47	255	100736	0.49 
56.125	-1.0649	0.1279	1.4839	2.8687	-4.6387	13.9160	6.4270	33.9038	70.4388	45.6100	-17	47	247	100735	0.49 
56.374	-1.1729	0.0146	1.6431	7.6294	16.1743	3.2349	7.8937	34.4916	72.4713	45.6000	-15	46	243	100735	0.49 
56.437	-1.0845	0.2705	1.9219	-5.6763	-8.4839	-6.2866	7.1136	35.1343	71.3507	45.6000	-17	44	238	100734	0.49 
56.548	-1.1768	0.2285	2.2061	-9.1553	24.7803	4.2725	6.0205	34.3817	71.7242	45.5900	-15	44	238	100734	0.49 
56.548	-1.3486	0.0352	1.7197	-14.5874	-19.7144	-20.9961	5.1196	34.5135	72.3724	45.5900	-11	44	241	100734	0.49 
56.595	-1.3169	-0.0610	1.9604	-15.9302	5.1270	-28.1372	1.3678	34.7552	68.9502	45.5700	-19	53	243	100734	0.49 
56.689	-1.0957	-0.0479	1.4756	-12.4512	-14.5264	-6.9580	-1.1646	33.0304	66.8793	45.5600	-25	59	243	100734	0.49 
56.720	-1.1475	-0.0151	1.6152	-6.2866	6.8359	5.1880	-2.0654	33.5852	66.4673	45.5600	-31	59	241	100733	0.49 
56.860	-1.1143	-0.1782	1.9219	0.7935	1.2817	15.1367	-1.1261	34.3707	67.9449	45.5900	-24	57	245	100733	0.49 
56.939	-1.2725	-0.1523	2.2383	10.9863	9.9487	-12.7563	-0.1593	33.7830	67.5549	45.5800	-17	56	245	100733	0.49 
57.095	-1.2598	0.2773	1.6724	15.6250	-16.3574	2.4414	0.9009	34.0247	66.9287	45.5700	-21	59	239	100732	0.49 
57.126	-1.3091	0.1064	2.0049	11.2915	-0.0610	15.3809	3.0652	34.4421	69.2303	45.5600	-17	56	230	100732	0.49 
57.298	-1.1343	0.1050	1.5605	4.9438	-3.9063	23.8037	4.7845	33.3270	71.3013	45.5600	-15	52	228	100732	0.49 
57.376	-1.0889	-0.0039	1.5371	8.9722	14.8315	8.7280	6.5369	33.8104	73.4106	45.5400	-9	51	226	100731	0.50 
57.467	-1.1533	0.2251	2.0215	-2.5635	2.6245	-8.7280	6.3446	35.3485	72.4109	45.5400	-4	50	221	100730	0.50 
57.651	-1.3589	0.3105	2.3438	-8.3618	21.4844	11.4746	5.3723	34.7992	72.4274	45.5400	-6	53	223	100731	0.50 
57.714	-1.3232	-0.2192	1.5093	-11.9019	-14.2212	-18.9209	4.1858	34.1345	72.7240	45.5400	-3	53	226	100730	0.50 
57.730	-1.3213	0.1211	1.9536	-16.2354	0.9155	-15.9302	1.2854	35.2606	70.0104	45.5300	-7	57	226	100730	0.50 
57.946	-1.0991	-0.1592	1.4883	-7.0190	9.7046	-9.2163	-0.3131	34.2609	68.5931	45.5100	-13	60	228	100730	0.50 
58.131	-1.1685	0.0317	1.7402	-2.5635	8.7891	0.1221	-1.5656	35.4254	66.6431	45.4900	-13	67	229	100730	0.50 
58.284	-1.2104	-0.1182	2.1104	5.3711	-11.5356	-6.4697	-1.3019	35.8099	66.1981	45.4800	-14	67	229	100729	0.50 
58.300	-1.7729	0.0947	2.4028	10.1929	21.4233	3.6621	-1.3733	35.7990	64.4678	45.4700	-17	67	228	100729	0.50 
58.353	-1.2622	0.1670	1.7407	12.1460	13.9771	12.8784	1.4227	34.4641	66.9562	45.4900	-16	67	225	100728	0.50 
58.519	-1.0654	0.0591	1.4966	5.3711	-33.3862	3.4180	3.0927	33.0798	68.3514	45.4600	-16	61	221	100728	0.50 
58.569	-1.1162	0.0591	1.4707	11.9629	0.6104	16.4185	4.8175	32.5250	70.0378	45.4600	-14	59	211	100728	0.50 
58.717	-1.1797	0.2183	1.8965	4.6997	18.1274	-18.8599	5.4492	34.0521	69.8181	45.4400	-9	54	210	100728	0.50 
58.770	-1.0864	0.0444	2.1470	-12.3291	-7.5684	2.3804	4.7461	33.9203	69.4446	45.4600	-11	56	213	100728	0.50 
58.917	-1.5767	0.1851	2.4131	-7.9956	-18.1274	15.3198	4.6143	33.7225	70.3235	45.4500	-8	61	217	100728	0.50 
59.002	-1.3506	-0.0454	1.5854	-5.7373	-0.4272	-32.8979	2.1094	31.9977	67.3077	45.4300	-13	64	215	100728	0.50 
59.149	-1.1602	0.0078	1.7393	-8.6060	-14.5874	-8.0566	0.0385	32.2504	64.8962	45.4300	-18	64	216	100728	0.50 
59.155	-1.1450	-0.0449	1.5688	-9.5215	2.0142	-6.6528	-1.3568	31.8384	63.4406	45.4300	-24	68	218	100727	0.50 
59.333	-1.1514	-0.0894	1.8408	-3.5400	17.3340	16.5405	-1.4996	32.9425	63.8416	45.4400	-24	71	221	100727	0.50 
59.487	-1.1152	-0.1216	2.1694	6.2866	-4.4556	-1.9531	-0.9833	33.3215	63.6658	45.4400	-18	67	222	100726	0.50 
59.552	-1.5957	0.1006	2.2891	7.5073	-1.6479	2.3804	-0.1483	33.3765	63.0945	45.4400	-15	63	221	100726	0.50 
59.552	-1.2505	0.1387	1.7271	7.6904	14.0991	22.2168	1.8951	32.7502	65.2753	45.4400	-11	64	214	100726	0.50 
59.719	-1.0830	0.0889	1.6182	2.0142	-13.0615	7.0801	3.2739	32.5800	66.9122	45.4200	-2	60	211	100725	0.50 
59.772	-1.0762	0.0537	1.5015	7.5073	2.6245	14.4043	4.4495	32.5031	68.2910	45.4100	0	59	211	100725	0.50 
59.904	-1.1582	0.1572	1.8574	7.4463	15.1367	-14.2212	5.2350	33.8544	68.4943	45.4100	4	57	207	100724	0.50 
60.148	-1.1235	0.1392	2.2344	-8.1787	-7.3853	3.5400	4.8615	34.1016	67.9559	45.4100	6	57	207	100724	0.50 
60.213	-1.7222	0.1558	2.2646	-8.9111	-11.7188	-5.3711	4.0979	34.0027	67.8845	45.4100	6	59	209	100724	0.50 
60.316	-1.2417	0.0044	1.7197	-10.0708	14.5874	-24.2310	0.8954	32.7942	63.9020	45.4100	0	62	207	100724	0.50 
60.385	-1.1055	0.0234	1.4937	-9.5825	-17.5171	5.1880	-0.7141	32.1405	62.7319	45.4100	-5	68	209	100724	0.50 
60.401	-1.1587	-0.0708	1.6553	-8.4229	12.8784	-1.0376	-1.4941	32.9700	62.8528	45.4100	-8	71	207	100723	0.50 
60.572	-1.1494	-0.1196	1.9146	-4.7607	14.4653	20.2637	-1.3074	34.4257	63.8690	45.4200	0	71	214	100723	0.50 
60.751	-1.3037	-0.1323	2.4282	12.2070	-3.9063	5.7373	-0.4559	34.5190	64.2645	45.4200	7	68	216	100722	0.50 
60.773	-1.3955	0.2656	1.6235	9.0332	-24.5972	19.7754	1.2360	33.8049	65.1984	45.4200	10	66	210	100722	0.50 
60.858	-1.3169	0.0195	2.0742	4.6387	0.2441	15.9912	3.3124	34.6674	67.5824	45.4100	19	64	205	100722	0.50 
61.275	-1.1240	0.1431	1.5601	9.3994	0.4883	6.8970	4.2133	33.4534	67.7142	45.3900	17	63	195	100722	0.50 
61.290	-1.1016	0.0352	1.6475	7.8125	16.6626	7.4463	5.6854	33.9917	69.1479	45.3800	18	60	192	100721	0.50 
61.357	-1.1729	0.2349	1.9800	1.6479	4.6997	-4.6997	5.5426	35.3485	68.2361	45.4000	24	55	191	100721	0.50 
61.491	-1.3398	0.2437	2.3047	-4.8218	18.7378	-1.2207	5.1581	35.0134	68.5931	45.4000	24	56	189	100720	0.50 
61.491	-1.4097	-0.1240	1.5376	-11.1084	-26.4893	-21.6064	3.6035	33.8654	67.8296	45.4000	23	60	188	100720	0.50 
61.723	-1.2969	0.0732	1.9985	-16.2964	3.7842	-18.1885	0.6537	34.4696	64.8633	45.3700	11	64	188	100720	0.50 
61.776	-1.1167	-0.0933	1.5166	-10.7422	1.7700	-0.5493	-0.8569	32.9205	63.8635	45.3800	1	72	185	100719	0.50 
61.807	-1.1670	-0.0098	1.7334	-4.8828	13.6719	4.2114	-1.6919	33.9532	63.2867	45.3600	3	73	187	100719	0.51 
61.807	-1.0957	-0.1216	2.0591	-0.4272	-8.4229	9.4604	-1.5656	35.1068	63.4131	45.3700	6	75	193	100718	0.51 
62.038	-1.3608	-0.0142	2.0845	10.3760	19.9585	6.7139	-0.5438	34.8431	63.2758	45.3900	9	74	187	100718	0.51 
62.239	-1.1821	0.1479	1.4780	15.1367	2.5635	19.4092	1.4447	35.4034	64.4678	45.3800	6	69	181	100718	0.51 
62.339	-1.1631	0.0356	1.5879	5.8594	-29.0527	11.3525	3.7408	35.9857	66.9891	45.3700	9	63	182	100717	0.51 
62.544	-1.1709	0.1606	1.6172	11.5967	8.4229	16.7236	5.5042	35.3210	68.7250	45.3500	10	60	176	100717	0.51 
62.550	-1.2383	0.0522	1.8311	6.5918	0.9155	-10.0098	6.7566	36.2823	69.9719	45.3500	16	56	171	100717	0.51 
62.808	-1.1987	0.1973	2.0156	2.0142	1.0986	-11.4746	6.6632	36.3098	68.7909	45.3300	10	55	169	100717	0.51 
63.124	-1.5684	0.3545	2.3408	-2.8687	7.9956	5.9814	5.3339	36.5515	67.3352	45.3400	7	56	166	100717	0.51 
63.140	-1.4380	-0.1523	1.5815	-7.4463	-6.7749	-29.6021	3.4497	35.5133	66.1377	45.3300	-1	58	165	100717	0.51 
63.140	-1.2549	0.1323	1.7754	-11.9019	-11.2915	-17.5171	0.0330	35.6232	61.6333	45.3000	-15	66	169	100717	0.51 
63.140	-1.1836	-0.1514	1.6040	-10.9253	-1.2207	-7.3242	-1.6370	34.8431	60.2710	45.3000	-29	66	172	100717	0.51 
63.239	-1.2603	0.0093	1.7920	-8.1177	3.4790	4.1504	-2.9059	35.0739	58.4418	45.3000	-36	71	175	100717	0.51 
63.239	-1.2144	-0.0757	1.8799	1.5869	-1.4648	11.1694	-2.5983	35.2167	58.4802	45.2900	-36	70	174	100716	0.51 
63.239	-1.2075	-0.1431	2.1040	4.0894	-1.4648	26.3062	-1.2524	34.9200	59.3591	45.3000	-32	71	172	100716	0.51 
63.323	-1.3306	0.0913	2.0210	9.5825	-21.2402	-4.0283	0.3571	34.4147	59.6832	45.2900	-27	66	173	100716	0.51 
63.377	-1.3862	0.1528	1.7495	6.9580	-4.6997	9.7656	2.5269	33.4698	61.7432	45.2900	-33	62	170	100715	0.51 
63.562	-1.1689	0.0498	1.6626	1.0986	-17.0898	15.8081	3.8452	32.1790	63.0615	45.2700	-36	60	168	100715	0.51 
63.651	-1.1631	0.1265	1.5811	3.5400	-8.2397	15.9912	4.9438	31.2946	63.7097	45.2700	-40	58	167	100715	0.51 
63.652	-1.1831	0.1040	1.7612	7.2632	2.6245	-4.3945	5.7074	31.3989	64.1986	45.2900	-38	54	166	100715	0.51 
63.877	-1.2598	0.1606	1.8442	0.8545	-1.5869	-3.9673	5.6580	31.6626	63.2758	45.2900	-40	53	169	100715	0.51 
63.877	-1.1670	0.0918	1.8130	-2.8687	-4.7607	-7.8125	5.0977	31.3715	62.1167	45.2900	-42	56	167	100715	0.51 
64.308	-1.2354	0.1548	1.8843	-5.9204	-1.2207	-5.9204	4.1473	31.4044	60.6720	45.2900	-47	59	166	100714	0.51 
64.324	-1.1831	0.0156	1.8540	-4.7607	-1.8311	-5.3711	3.2355	31.2946	59.3481	45.3100	-50	56	165	100714	0.51 
64.377	-1.1934	0.0278	1.8638	-3.6011	-1.7700	-2.9907	2.5763	31.3605	57.9474	45.3100	-49	57	168	100714	0.51 
64.471	-1.2012	0.0459	1.8774	-1.9531	-0.4883	-1.0986	2.0599	31.4703	56.6565	45.3200	-53	59	168	100713	0.51 
64.471	-1.1821	0.0156	1.8608	-0.4883	0.3662	-1.0986	1.8182	31.4923	55.5029	45.3200	-52	62	169	100714	0.51 
64.533	-1.1846	0.0444	1.8618	-0.2441	0.3662	-0.1221	1.6864	31.6022	54.3604	45.3200	-55	58	168	100714	0.51 
64.633	-1.1821	0.0361	1.8618	-0.4883	-0.4883	-0.3052	1.5875	31.6461	53.4540	45.3100	-53	63	170	100714	0.51 
64.696	-1.1846	0.0327	1.8687	0.0000	0.4272	0.9155	1.5546	31.6626	52.6575	45.3300	-56	60	170	100714	0.51 
64.836	-1.1846	0.0439	1.8638	0.2441	0.2441	0.0000	1.5491	31.7560	51.8774	45.3300	-55	63	171	100714	0.51 
65.014	-1.1880	0.0396	1.8677	0.0000	-0.0610	1.2817	1.5930	31.7889	51.1963	45.3500	-54	61	170	100714	0.51 
65.102	-1.1753	0.0386	1.8682	-0.3662	-0.7935	1.2817	1.6425	31.6956	50.6250	45.3500	-57	59	171	100714	0.51 
65.218	-1.1733	0.0356	1.8633	0.1831	-0.4883	0.1221	1.6754	31.6351	50.0702	45.3700	-56	60	171	100714	0.51 
65.294	-1.1851	0.0400	1.8638	0.0000	-0.6714	0.7935	1.7029	31.6791	49.4495	45.3500	-54	61	168	100714	0.51 
65.434	-1.1938	0.0376	1.8652	-0.3052	0.7935	0.1831	1.6974	31.7505	48.7683	45.3600	-57	60	167	100714	0.51 
65.434	-1.1895	0.0391	1.8599	0.0610	-0.3662	0.9155	1.6974	31.8054	48.1531	45.3800	-56	61	170	100714	0.51 
65.604	-1.1797	0.0425	1.8589	-0.1221	-0.8545	0.7935	1.6809	31.7944	47.6367	45.3800	-57	62	173	100714	0.51 
65.635	-1.1836	0.0444	1.8613	-0.1221	-1.0376	0.7935	1.6644	31.7615	47.1204	45.3700	-54	60	170	100714	0.51 
65.838	-1.1758	0.0415	1.8633	-0.1831	-1.1597	0.9766	1.6699	31.7175	46.6644	45.3700	-58	61	170	100714	0.51 
66.182