StartTime: 2017-07-12 15:43:53.362
Time(s)	ax(g)	ay(g)	az(g)	wx(deg/s)	wy(deg/s)	wz(deg/s)	AngleX(deg)	AngleY(deg)	AngleZ(deg)	T(°)	hx	hy	hz	Pressure(Pa)	Altitude(m) 
118.681	-1.1665	-0.0083	1.8721	-0.4272	-1.8311	0.0000	-0.3296	30.7397	52.6630	45.7100	-82	50	271	100743	0.49 
118.837	-1.1626	-0.0161	1.8672	-0.4272	-0.6104	1.1597	-0.3131	30.6793	52.7454	45.7100	-83	53	269	100743	0.48 
118.915	-1.1646	-0.0278	1.8740	1.0376	-0.4883	-0.7324	-0.3516	30.7013	52.6135	45.6900	-80	53	274	100743	0.48 
119.056	-1.1431	-0.0879	1.8765	2.7466	3.5400	-1.8311	-0.2087	30.8002	52.6520	45.7000	-82	52	271	100743	0.49 
119.118	-1.1675	-0.1479	1.8511	8.4839	1.8921	-12.8784	-0.2802	31.0583	51.3336	45.7100	-83	50	266	100743	0.49 
119.257	-1.1851	0.0063	1.8403	8.4839	3.1128	-2.4414	-0.2032	31.4209	49.8285	45.6900	-86	53	264	100743	0.49 
119.319	-1.1470	0.2383	1.8608	9.8267	7.3853	35.0952	1.9940	32.5525	53.0090	45.7000	-86	47	264	100743	0.49 
119.460	-1.0693	0.0923	1.9102	15.7471	-5.8594	12.6343	4.6088	32.9535	55.8325	45.7000	-75	45	259	100744	0.48 
119.538	-1.1514	0.0894	1.8462	6.1646	16.6016	18.0664	6.6193	33.3435	58.8757	45.6900	-70	45	257	100743	0.48 
119.694	-1.1060	0.1563	1.8442	0.3052	6.8970	9.4604	7.5751	34.1840	61.2488	45.6900	-61	43	256	100743	0.48 
119.757	-1.0308	0.1548	2.0718	-3.4790	10.4370	-9.4604	7.2070	34.2883	61.9189	45.6800	-60	47	256	100744	0.48 
119.882	-1.5356	0.3340	2.3486	-15.9302	9.0942	25.0244	7.1521	35.5353	64.0393	45.6900	-51	46	261	100744	0.48 
119.960	-1.3535	-0.1763	1.5703	-9.9487	3.4180	-20.4468	4.1803	34.9860	63.1000	45.6800	-45	49	262	100744	0.48 
120.074	-1.2310	0.0293	1.7271	-11.4136	-23.5596	-14.4653	1.3568	35.1947	61.1719	45.6800	-45	53	262	100744	0.48 
120.146	-1.1216	-0.0552	1.5044	-8.6060	7.2632	0.4272	-0.1703	34.5850	60.4688	45.6500	-53	54	265	100744	0.48 
120.274	-1.2744	-0.1128	1.8965	-3.7231	22.7051	21.9116	0.0659	36.3318	61.8475	45.6500	-47	58	266	100744	0.48 
120.354	-1.2466	-0.1499	2.3765	7.5684	-28.9307	-9.7656	0.0824	35.5463	61.7157	45.6300	-38	56	265	100743	0.49 
120.471	-1.7607	0.3872	1.9541	3.9063	-3.4180	44.2505	1.6589	34.6124	62.3749	45.6400	-40	57	262	100743	0.49 
120.554	-1.2749	-0.0601	2.0645	1.3428	20.0195	25.2075	4.8944	34.7223	67.6703	45.6300	-29	57	260	100743	0.49 
120.673	-1.1060	0.0518	1.4536	8.1787	-10.4980	-2.0752	5.2734	33.2336	67.8461	45.6200	-27	51	252	100742	0.49 
120.783	-1.0850	0.0449	1.5483	8.1177	23.4375	-1.7700	6.2787	33.5468	68.3899	45.6000	-27	53	245	100742	0.49 
120.923	-1.1450	0.2915	2.2485	0.6714	-3.4180	4.2114	6.3501	35.3650	67.8735	45.6000	-24	46	243	100742	0.49 
121.080	-1.5396	0.2021	2.3389	-0.3052	0.6104	29.2358	6.7072	34.2334	70.3180	45.6000	-18	49	244	100742	0.49 
121.158	-1.2813	-0.1118	1.3672	-5.3711	-13.4277	-25.9399	3.7903	32.6294	67.3352	45.5800	-20	50	241	100742	0.49 
121.189	-1.1689	0.0063	1.7373	-8.0566	-16.3574	-14.8926	1.4117	33.4149	65.3522	45.5700	-31	58	243	100742	0.49 
121.355	-1.1094	-0.0444	1.4961	-6.2256	13.3667	-1.0376	0.2637	33.0414	63.9349	45.5500	-36	63	244	100742	0.49 
121.386	-1.2368	-0.1553	1.9395	-1.8921	29.8462	22.3389	0.6976	35.3375	65.1544	45.5700	-30	62	244	100742	0.49 
121.558	-1.3877	-0.2207	2.3638	8.8501	13.0005	-14.7705	1.5106	36.4197	65.0500	45.5800	-19	60	245	100741	0.49 
121.683	-1.1733	0.2983	1.5103	7.6904	-20.8740	5.8594	2.7850	34.5465	66.2640	45.5600	-20	55	236	100741	0.49 
121.746	-1.1689	0.0303	1.6621	4.0894	-36.4990	4.6387	4.0704	33.2941	67.8461	45.5400	-21	56	232	100741	0.49 
121.902	-1.0859	0.1138	1.3452	9.3384	2.1973	8.6670	4.6582	31.8054	68.0768	45.5300	-29	59	227	100740	0.49 
121.964	-1.1865	0.1177	2.0361	3.6011	27.4658	-19.8975	5.0537	33.6566	67.9120	45.5300	-27	59	224	100740	0.49 
122.089	-1.1050	0.1440	2.2056	-14.8926	-7.0190	13.1226	3.7518	33.0853	66.6156	45.5200	-29	56	225	100740	0.49 
122.167	-1.5659	0.0332	1.9189	-11.2915	-48.8892	-20.2026	3.4662	32.9205	67.5220	45.5300	-23	59	224	100740	0.49 
122.310	-1.2568	-0.0078	1.9072	-8.1787	21.6675	-19.1650	1.2360	32.4207	65.1270	45.5000	-30	63	225	100740	0.49 
122.404	-1.0249	-0.0625	1.4331	-8.1177	-8.7280	-0.4883	0.0385	31.8549	64.0283	45.4900	-33	68	227	100739	0.49 
122.497	-1.1328	0.0151	1.6577	-6.0425	17.1509	11.5967	-0.5438	33.0798	63.9404	45.5000	-33	67	227	100739	0.49 
122.591	-1.1602	-0.1924	2.1943	-1.3428	10.5591	5.3101	-0.0714	34.7882	65.0116	45.4900	-27	69	233	100739	0.49 
122.700	-1.5000	0.0835	2.3413	5.1880	19.2261	17.4561	-0.1044	34.4257	63.1934	45.5000	-25	70	231	100738	0.49 
122.779	-1.0977	0.0640	1.5630	8.6060	11.5356	8.9111	2.0544	32.7832	66.5552	45.4900	-19	64	227	100738	0.49 
122.904	-1.1362	0.0854	1.5718	8.6670	-33.0811	-10.1318	3.2794	32.4591	67.3682	45.4700	-16	67	226	100737	0.49 
122.997	-1.0986	0.0313	1.4155	10.7422	8.8501	12.2070	4.3396	32.0581	67.7307	45.4700	-20	67	221	100737	0.49 
123.138	-1.2271	0.1846	2.0640	7.3853	29.8462	-17.2119	4.7900	34.9365	67.0496	45.4800	-16	62	218	100737	0.49 
123.200	-1.2056	0.1133	2.3262	-14.2212	-2.1973	7.2021	4.5703	34.8102	66.8573	45.4800	-15	61	219	100736	0.49 
123.391	-1.3706	-0.1172	1.5732	-12.2070	-43.2739	-23.0713	2.7466	33.6072	65.5554	45.4800	-15	64	220	100736	0.49 
123.422	-1.2510	0.0635	1.9810	-5.3711	0.1831	-25.6958	0.3241	33.3600	62.5012	45.4700	-21	71	222	100735	0.49 
123.578	-1.0439	-0.0234	1.3564	-7.6294	0.9766	-4.0894	-1.0437	31.9482	60.7599	45.4700	-29	74	222	100735	0.49 
123.641	-1.1616	-0.0532	1.8291	-5.7373	29.0527	19.8364	-1.1646	34.1620	61.4960	45.4600	-28	75	226	100735	0.49 
123.797	-1.2573	-0.0259	2.4141	9.3384	16.1133	5.4321	-0.0330	35.9033	62.5177	45.4600	-15	71	230	100734	0.49 
123.828	-1.5820	0.2310	1.6938	7.8125	-46.3257	14.2212	1.4557	35.9033	63.2318	45.4600	-9	69	228	100734	0.49 
124.016	-1.3096	0.0620	2.0923	5.4932	13.3667	18.4937	3.0432	35.5188	64.5612	45.4400	-8	67	222	100734	0.49 
124.078	-1.0547	0.0820	1.3428	8.4229	-11.2915	0.7324	3.8013	33.4644	64.8907	45.4500	-4	65	218	100734	0.49 
124.219	-1.1201	0.0249	1.6772	8.7280	26.4893	-3.2349	4.8615	34.6124	65.5334	45.4400	-4	56	216	100733	0.49 
124.345	-1.1797	0.2822	2.3101	-5.4932	-13.9771	4.0894	4.5209	35.7166	64.6381	45.4400	2	58	214	100733	0.49 
124.408	-1.7363	0.0332	2.0488	-10.3149	-28.9917	-12.8784	3.9880	35.0958	65.7037	45.4300	5	62	214	100733	0.49 
124.549	-1.2129	-0.1064	1.7349	-11.2915	26.7334	-23.8647	1.2305	34.2938	62.6550	45.4400	-3	64	211	100733	0.49 
124.595	-1.1147	0.0552	1.4209	-5.3711	-18.7988	-12.3901	-1.2744	33.9532	59.9579	45.4400	-12	65	213	100733	0.49 
124.736	-1.1240	-0.0420	1.5928	-5.9204	25.2686	11.6577	-1.9720	35.2167	60.0897	45.4200	-10	72	215	100732	0.49 
124.814	-1.2905	-0.2192	2.2529	1.7700	15.6250	10.4980	-0.8405	37.9742	62.1277	45.4400	2	68	218	100732	0.49 
124.955	-1.6880	0.0981	2.2729	11.9019	5.6763	3.0518	-0.0659	37.6996	61.2323	45.4300	9	70	215	100732	0.49 
125.033	-1.1504	0.0835	1.5107	9.0332	-11.5356	2.1362	1.9501	35.1453	63.6108	45.4400	10	63	208	100732	0.49 
125.162	-1.1382	0.0698	1.5571	4.4556	-36.8042	5.4321	2.9004	33.9313	64.6655	45.4300	7	61	204	100731	0.49 
125.226	-1.1040	0.1431	1.4819	5.7983	12.6343	20.6299	3.9990	33.4698	65.7367	45.4200	1	63	196	100731	0.50 
125.350	-1.2075	0.1377	2.1260	4.3945	13.9771	-3.1128	5.3009	35.6012	67.4890	45.4200	11	59	194	100731	0.50 
125.422	-1.2485	0.1274	2.2788	-12.8174	-6.5308	8.3008	5.3119	34.3378	68.8843	45.4000	20	56	195	100731	0.50 
125.550	-1.3921	-0.0181	1.5962	-11.9629	-40.9546	-22.2168	3.8452	32.4371	67.9449	45.4200	17	57	190	100730	0.50 
125.646	-1.2573	-0.0405	1.9336	-17.2729	12.1460	-25.9399	1.0272	32.8052	65.3577	45.4100	6	63	184	100730	0.50 
125.771	-1.0981	-0.0396	1.3740	-9.9487	-6.4087	-0.4883	-0.6921	32.0416	63.8361	45.4000	-4	65	188	100730	0.50 
125.834	-1.1299	-0.0132	1.8179	-1.4038	34.8511	15.8691	-0.7855	34.1840	64.2371	45.4100	-2	72	187	100729	0.50 
126.006	-1.2261	-0.2104	2.3374	5.8594	3.2349	7.2021	0.0439	35.9198	64.9017	45.4000	8	69	189	100729	0.50 
126.037	-1.8242	0.2837	2.2222	18.4326	-3.8452	10.4980	0.9064	36.1670	63.9459	45.4100	9	72	183	100728	0.50 
126.225	-1.2314	0.0581	1.7505	6.7139	14.8926	18.4326	3.3014	34.8047	66.2915	45.3800	5	69	177	100728	0.50 
126.396	-1.1001	0.0913	1.4316	6.5918	-10.0098	-1.0376	4.3286	33.4863	67.2308	45.3700	0	62	173	100728	0.50 
126.396	-1.1416	0.0708	1.6226	7.6904	12.3291	13.2446	5.9161	33.8928	68.2635	45.3700	-2	60	169	100727	0.50 
126.568	-1.1030	0.2339	1.8354	7.5684	3.8452	-14.0991	6.1578	35.0684	67.2308	45.3800	1	57	165	100727	0.50 
126.631	-1.1748	0.1646	2.2285	-11.5356	2.8076	-0.9766	5.8612	35.0739	67.1924	45.3800	-2	54	157	100726	0.50 
126.662	-1.5684	-0.0869	1.8057	-16.9678	-34.7900	-13.4888	4.7516	34.7552	67.4066	45.3700	-4	58	159	100726	0.50 
126.826	-1.3447	-0.0225	1.9507	-14.4043	2.6245	-32.4097	1.6919	34.5575	63.9404	45.3700	-18	64	165	100726	0.50 
126.967	-1.1323	-0.0562	1.4487	-13.4277	-4.7607	-17.0288	-0.7855	33.1128	60.7159	45.3600	-33	70	165	100726	0.50 
127.045	-1.1685	0.0415	1.7178	-8.2397	14.5874	-2.6855	-3.0048	33.7170	57.6672	45.3700	-45	72	167	100726	0.50 
127.186	-1.1133	-0.1431	1.9067	-0.0610	8.3008	15.3809	-2.7740	34.7882	57.8101	45.3500	-43	76	173	100725	0.50 
127.248	-1.2646	-0.1787	2.3003	10.9253	-8.8501	18.1885	-1.4941	35.2167	57.8375	45.3800	-38	77	175	100725	0.50 
127.396	-1.5371	0.3438	1.6724	7.2632	-26.5503	3.2959	0.3845	33.8489	57.5189	45.3600	-44	72	169	100724	0.50 
127.427	-1.3828	-0.0581	1.9224	-0.2441	-9.2163	5.6152	2.2083	33.3600	58.7000	45.3600	-50	64	173	100724	0.50 
127.599	-1.1953	0.1768	1.6499	5.9814	-0.4272	11.6577	2.8070	31.8658	58.1177	45.3600	-56	64	168	100723	0.50 
127.677	-1.1782	-0.0117	1.7378	-1.0376	-2.3804	3.3569	3.5486	31.2726	58.8098	45.3500	-56	61	168	100723	0.50 
127.834	-1.2129	0.1187	1.8242	-1.5869	-4.8218	-8.0566	3.2410	30.9485	56.8982	45.3500	-64	59	167	100723	0.50 
127.834	-1.1743	0.0825	1.7944	-7.2632	-10.0708	-12.0850	2.5818	30.3937	54.9152	45.3600	-67	59	168	100723	0.50 
128.021	-1.3647	0.1909	1.9795	2.1362	-10.4370	-2.5635	1.1316	30.3607	51.5204	45.3500	-74	62	168	100722	0.50 
128.083	-1.2080	-0.0850	1.9502	1.0376	13.5498	-8.1787	1.2524	30.3992	50.6360	45.3700	-74	62	165	100722	0.50 
128.208	-1.1558	-0.0352	1.8467	-0.4272	7.0190	-4.5776	0.7471	30.7727	48.0927	45.3600	-78	63	165	100722	0.50 
128.287	-1.1641	0.0132	1.8760	-0.4883	3.2349	-6.6528	0.2747	31.0748	45.7416	45.3600	-80	64	170	100722	0.50 
128.402	-1.1821	0.0215	1.8721	0.3052	2.3193	-3.0518	0.0989	31.3110	43.8629	45.3700	-80	65	167	100722	0.50 
128.448	-1.1743	0.0171	1.8726	0.0000	2.4414	1.7700	0.1154	31.6241	42.4896	45.3600	-77	61	169	100722	0.50 
128.667	-1.1821	0.0273	1.8794	0.8545	1.6479	1.0376	0.2692	31.8494	41.2152	45.3900	-80	64	168	100722	0.50 
128.667	-1.1865	0.0322	1.8652	-0.1831	2.0752	2.8687	0.5054	31.9647	40.2979	45.4000	-79	62	170	100723	0.50 
128.839	-1.1885	0.0020	1.8765	0.0610	0.7324	0.0610	0.6152	32.1625	39.4574	45.3800	-77	65	168	100722	0.50 
128.995	-1.1846	0.0317	1.8604	0.1831	-0.1221	-0.3662	0.5933	32.2119	38.3258	45.3900	-78	62	168	100722	0.50 
129.042	-1.1943	0.0249	1.8628	-0.6104	1.4038	-1.3428	0.5054	32.3218	37.2711	45.3900	-82	60	164	100722	0.50 
129.089	-1.1914	0.0249	1.8618	-0.4883	0.0610	-1.3428	0.3845	32.4261	36.1121	45.4000	-80	62	170	100722	0.50 
129.277	-1.1836	0.0249	1.8623	-0.0610	-0.4272	-0.9766	0.3296	32.4591	35.0354	45.4100	-83	60	164	100722	0.50 
129.332	-1.1851	0.0239	1.8633	-0.5493	-0.6104	0.5493	0.3296	32.4426	34.2773	45.4000	-80	60	169	100722	0.50 
129.431	-1.1841	0.0225	1.8638	-0.2441	-0.3052	1.2207	0.3571	32.4152	33.5632	45.4100	-82	62	168	100722	0.50 
129.510	-1.1782	0.0254	1.8672	0.4272	-0.8545	0.7324	0.4120	32.3602	32.8656	45.4100	-79	62	166	100722	0.50 
129.681	-1.1724	0.0146	1.8604	0.0610	0.0610	0.2441	0.4614	32.3492	32.1295	45.4200	-80	60	167	100722	0.50 
129.713	-1.1934	0.0229	1.8672	0.1221	0.9766	-0.1221	0.5054	32.4152	31.4703	45.4100	-81	60	165	100722	0.50 
129.931	-1.2061	0.0200	1.8662	0.2441	1.7090	0.2441	0.5768	32.5250	30.9869	45.4200	-81	62	165	100721	0.50 
130.181	-1.2070	0.0186	1.8652	-0.1221	1.5259	-0.5493	0.5988	32.6678	30.3717	45.4400	-81	63	166	100721	0.50 
130.185	-1.2026	0.0283	1.8677	0.3662	-0.4272	0.3052	0.6152	32.6953	29.7125	45.4100	-80	65	166	100721	0.50 
130.257	-1.1992	0.0244	1.8545	-0.3662	-0.4883	0.6104	0.6537	32.6294	29.1357	45.4100	-82	59	166	100721	0.50 
130.433	-1.1851	0.0239	1.8594	-0.0610	-1.0376	1.3428	0.6866	32.5415	28.6798	45.4300	-79	62	167	100721	0.50 
130.437	-1.1831	0.0244	1.8550	-0.2441	0.0610	1.7090	0.7745	32.5250	28.3502	45.4400	-82	63	170	100721	0.50 
130.497	-1.1855	0.0293	1.8677	0.0610	0.1831	1.0376	0.8350	32.5800	27.9602	45.4400	-80	61	166	100721	0.50 
130.533	-1.1924	0.0259	1.8647	0.1831	-0.1831	1.2817	0.9064	32.5360	27.5977	45.4000	-82	62	161	100721	0.50 
130.684	-1.1924	0.0332	1.8687	0.0000	0.7324	1.2207	0.9778	32.5195	27.1582	45.4300	-84	64	162	100721	0.50 
130.731	-1.1992	0.0200	1.8633	0.1221	-0.0610	-0.2441	1.0107	32.5854	26.7352	45.4400	-82	61	166	100721	0.50 
130.903	-1.1943	0.0273	1.8682	0.4272	-0.7935	-0.5493	1.0162	32.5470	26.2958	45.4400	-82	61	168	100721	0.50 
130.934	-1.2012	0.0273	1.8677	-0.3662	0.0000	-0.1221	0.9998	32.5031	25.9332	45.4500	-81	60	165	100721	0.50 
131.137	-1.1963	0.0239	1.8638	-0.4272	-0.4272	0.1221	0.9778	32.4811	25.6036	45.4300	-81	62	164	100721	0.50 
131.246	-1.2017	0.0259	1.8618	-0.2441	-0.6104	0.5493	0.9778	32.4481	25.3949	45.4400	-78	59	165	100721	0.50 
131.309