20
StartTime: 2017-07-12 15:27:58.684
Time(s)	ax(g)	ay(g)	az(g)	wx(deg/s)	wy(deg/s)	wz(deg/s)	AngleX(deg)	AngleY(deg)	AngleZ(deg)	T(°)	hx	hy	hz	Pressure(Pa)	Altitude(m) 
22.793	-1.3286	0.0562	1.8320	0.0000	0.1831	0.7324	2.2522	36.0901	115.2026	39.6900	125	-102	250	100789	0.45 
22.918	-1.3213	0.0513	1.8271	0.0000	0.1831	0.7324	2.2687	36.0736	115.2246	39.7000	124	-98	249	100789	0.45 
22.980	-1.3149	0.0576	1.8242	-0.1221	-1.0376	0.9766	2.2632	36.0736	115.2026	39.7100	124	-99	248	100790	0.45 
23.145	-1.3228	0.0493	1.8311	-0.2441	-0.7935	1.0986	2.2687	36.0297	115.2411	39.7100	121	-99	251	100789	0.45 
23.213	-1.3262	0.0518	1.8315	0.1221	0.3662	0.4272	2.2906	36.0242	115.2411	39.7100	128	-99	250	100789	0.45 
23.361	-1.3159	0.0332	1.8330	-2.4414	4.6387	1.5869	2.2028	36.2604	115.1752	39.7200	126	-100	250	100789	0.45 
23.525	-1.3286	0.0591	1.8174	0.5493	5.8594	0.7324	2.1643	36.5460	115.1202	39.7400	127	-100	252	100789	0.45 
23.589	-1.2920	-0.0273	1.8091	0.6104	4.6997	-3.3569	2.2028	36.9690	115.1038	39.7500	127	-100	257	100789	0.45 
23.746	-1.3789	-0.0405	1.8750	7.0190	6.5918	-19.1040	1.3733	37.7325	113.3020	39.7400	126	-98	253	100789	0.45 
23.824	-1.2974	0.2559	1.6665	5.4321	13.7329	7.9956	1.7303	38.0017	112.3627	39.7600	127	-97	256	100789	0.45 
23.933	-1.2422	-0.0005	1.9556	2.8076	2.1362	20.5078	3.2355	38.9246	114.7302	39.7700	130	-98	259	100790	0.45 
24.011	-1.1768	0.1685	1.7432	11.6577	12.0239	28.3813	6.2457	39.4904	117.7954	39.7700	134	-105	264	100790	0.45 
24.154	-1.2241	0.0474	1.8716	8.0566	3.6621	3.6011	8.3441	40.1221	120.0366	39.7800	135	-113	265	100790	0.45 
24.201	-1.2114	0.1328	1.8882	7.8735	7.0190	-13.3667	8.4760	40.1276	119.3335	39.7900	138	-112	271	100790	0.45 
24.342	-1.2783	0.2046	2.1763	-0.3662	0.4272	-27.9541	6.8225	40.5725	116.4551	39.8000	140	-110	274	100791	0.45 
24.436	-1.6704	0.0435	1.5928	-3.9063	-14.7705	5.6763	6.4709	40.3802	115.9662	39.7800	143	-104	273	100791	0.45 
24.576	-1.6011	0.1313	1.9004	-7.2632	11.0474	-23.7427	4.4879	41.2537	113.5217	39.7900	142	-102	276	100791	0.45 
24.623	-1.2847	0.0000	1.5498	-13.3057	-7.6294	-13.3057	1.5765	40.1495	110.8246	39.7900	144	-95	272	100792	0.44 
24.779	-1.2798	0.1631	1.7432	-9.3384	-10.6201	14.2212	-0.0110	39.4684	110.1379	39.7800	147	-93	268	100792	0.44 
24.826	-1.3311	0.0107	2.1753	-3.4180	-10.7422	45.1050	1.7303	38.1775	114.5160	39.7700	148	-97	263	100792	0.44 
24.951	-1.5576	0.0142	1.8232	-10.5591	12.0850	23.0103	3.1201	35.3265	118.8116	39.7800	147	-109	258	100793	0.44 
25.045	-1.2476	0.3442	1.6890	15.5640	4.6997	-24.7803	0.6866	35.3650	116.1584	39.8100	146	-111	253	100793	0.44 
25.201	-1.1616	-0.2925	1.5225	21.1792	-5.6152	-7.9346	3.0487	35.3375	118.4711	39.7900	145	-112	252	100792	0.44 
25.358	-1.1670	0.2417	1.6636	14.5874	-1.8311	-42.4194	2.7576	35.0958	113.7195	39.7900	148	-108	246	100792	0.44 
25.420	-1.2188	0.0889	1.8799	3.2349	8.4229	-42.9688	0.5219	34.8102	109.3964	39.7800	144	-99	243	100792	0.44 
25.577	-1.0371	-0.0771	1.9399	3.3569	-36.2549	-12.2070	0.0714	33.5303	107.3804	39.8000	143	-89	243	100793	0.44 
25.608	-1.8267	0.0195	2.0078	15.3809	-4.3945	20.9351	2.1423	33.9478	108.2043	39.8000	141	-87	239	100792	0.44 
25.733	-1.2427	0.2749	1.4868	-7.1411	-12.0850	-38.0249	0.1154	33.9258	105.6116	39.8100	145	-89	238	100792	0.44 
25.795	-1.2002	-0.2891	1.5806	-19.4092	5.9204	34.1187	-1.0492	34.7662	107.4792	39.8100	143	-82	235	100792	0.44 
25.967	-1.2031	0.1323	1.9180	5.1270	2.5024	30.5786	0.4285	35.3156	109.8413	39.8000	147	-88	236	100792	0.44 
25.998	-1.0503	-0.2227	1.7500	0.1221	12.6343	8.1787	2.0105	33.8489	113.8898	39.8000	150	-99	240	100792	0.44 
26.157	-1.1982	0.3271	1.6724	-2.3804	-14.2822	13.3057	1.3129	35.9912	112.9944	39.8100	154	-101	242	100792	0.44 
26.219	-1.0659	-0.1299	1.4009	16.1743	-37.0483	16.2964	3.1970	35.7275	115.4663	39.8300	157	-104	243	100792	0.44 
26.375	-1.2163	0.1553	1.6514	12.3901	12.6343	-26.0010	4.0155	35.6122	113.9886	39.8100	157	-107	237	100791	0.44 
26.422	-1.1519	0.0439	1.9424	5.7373	9.6436	-41.4429	1.9885	35.3705	110.2588	39.8000	157	-102	235	100791	0.44 
26.610	-0.8970	0.0752	1.6416	0.0000	-49.5605	-7.3853	1.1041	33.2666	107.3035	39.8100	158	-91	234	100792	0.44 
26.672	-1.6011	-0.2837	2.0991	-14.4653	-36.6821	24.2920	3.0927	34.9255	110.5939	39.8200	161	-93	236	100792	0.44 
26.813	-1.3252	0.4058	1.6030	-20.7520	-16.5405	-15.8081	0.2142	35.2222	108.1879	39.8200	162	-93	231	100791	0.44 
26.860	-1.0986	-0.2856	1.3813	-21.6064	8.9111	36.2549	-0.6592	34.6124	111.0608	39.8000	159	-92	225	100791	0.45 
27.016	-1.1763	0.1367	1.8574	-1.2817	0.0610	50.9033	1.3678	35.2551	114.5874	39.8200	164	-100	227	100790	0.45 
27.084	-0.9766	-0.1323	1.9312	0.0000	-31.1890	16.1743	3.5046	33.7170	119.7894	39.8100	166	-117	230	100790	0.45 
27.249	-1.1099	0.4863	1.7334	9.2163	-32.2266	-42.3584	1.6809	33.5907	116.7407	39.8200	162	-116	223	100791	0.45 
27.374	-1.1958	-0.1528	1.4429	11.9629	-20.2637	-7.5684	2.8564	33.7610	118.4271	39.8300	166	-115	222	100791	0.45 
27.405	-1.1123	0.2461	1.4238	10.3760	15.1978	-4.6997	3.5321	34.2883	116.5759	39.8300	160	-111	222	100790	0.45 
27.624	-1.0884	0.0430	1.9429	-0.7324	2.4414	-28.6865	2.1918	35.4474	114.5325	39.8200	166	-106	225	100790	0.45 
27.671	-1.0127	0.0684	2.0142	1.8921	-41.9312	-30.5176	0.2307	34.3597	110.5774	39.8100	166	-95	226	100790	0.45 
27.827	-1.5830	-0.1475	1.7832	-3.1128	-33.3252	18.0054	2.5323	34.1455	112.4780	39.8300	165	-91	222	100790	0.45 
27.874	-1.2915	0.3071	1.4624	-11.0474	-16.7236	-10.1318	1.0107	34.4861	110.6323	39.8400	164	-92	221	100790	0.45 
28.015	-1.1611	-0.2534	1.4282	-26.7944	6.0425	48.9502	0.9833	34.9475	114.3018	39.8300	161	-87	221	100790	0.45 
28.067	-1.2217	0.0464	2.0034	3.9673	13.3057	34.1797	2.2687	36.2494	117.1967	39.8300	164	-96	227	100790	0.45 
28.192	-0.9614	-0.2437	2.0879	-6.4087	-36.8652	1.5869	3.6914	34.8816	120.4926	39.8300	166	-107	229	100790	0.45 
28.268	-1.7803	0.1982	2.0356	-1.0376	-18.9209	-40.9546	1.9666	36.0516	118.2953	39.8500	164	-106	227	100789	0.45 
28.448	-1.3149	-0.1602	1.5801	6.0425	-23.4375	23.4375	2.8564	35.2606	117.7185	39.8200	163	-100	229	100790	0.45 
28.512	-1.0913	0.3057	1.4932	25.9399	-7.5073	-28.9917	3.4772	35.0024	114.3842	39.8300	158	-97	226	100790	0.45 
28.671	-1.1270	-0.0200	1.7695	-1.7700	-1.2817	-25.0854	1.9556	35.3156	111.0004	39.8500	156	-87	227	100790	0.45 
28.796	-1.0547	0.1079	2.3516	7.3853	-31.1279	-10.9253	0.9503	34.7333	108.3746	39.8500	153	-79	229	100790	0.45 
28.874	-2.1577	0.2329	1.9575	21.6675	-22.8882	59.8755	2.3126	34.6399	108.2977	39.8500	146	-74	223	100790	0.45 
28.906	-1.4097	0.1289	1.8232	-7.6904	-6.2256	-33.4473	2.2742	34.6289	109.3469	39.8400	140	-81	224	100790	0.45 
29.062	-1.1704	-0.0967	1.5234	-29.2969	-0.6104	40.7715	1.2634	34.3488	110.4291	39.8700	139	-76	221	100791	0.45 
29.110	-1.0601	-0.0063	1.7793	5.0659	2.2583	6.1035	1.1481	35.0793	112.8571	39.8400	137	-81	225	100790	0.45 
29.283	-1.3945	-0.1050	2.4419	-0.8545	8.7280	35.1563	3.3069	35.7770	115.7794	39.8500	137	-87	227	100791	0.45 
29.455	-2.1323	0.0190	1.9204	-19.5923	25.8789	-1.1597	2.9993	34.7827	117.0978	39.8700	131	-94	226	100791	0.45 
29.486	-1.5161	0.2271	2.0679	1.1597	22.8271	15.5029	1.5381	35.2002	115.1807	39.8600	128	-94	229	100790	0.45 
29.533	-1.1157	-0.0625	1.5039	21.4233	6.9580	-32.1045	2.4060	34.7003	115.3400	39.8400	126	-97	229	100790	0.45 
29.705	-1.1714	0.1406	1.7466	-0.9766	2.7466	-21.9116	2.2906	35.2441	112.5604	39.8600	125	-95	229	100791	0.45 
29.877	-1.3560	0.2007	2.2324	-0.0610	20.8740	-28.8086	0.4504	35.6726	109.9786	39.8400	121	-88	227	100790	0.45 
29.908	-1.6069	0.2695	1.9224	11.7798	16.2354	-8.6670	0.1703	33.5577	109.0558	39.8600	117	-85	228	100791	0.45 
30.049	-1.4346	-0.3599	2.0859	-10.2539	26.0010	4.7607	2.5433	34.0961	112.5000	39.8600	116	-96	226	100791	0.45 
30.100	-1.1377	0.2554	1.4956	-20.4468	8.1787	17.0898	0.4120	34.3542	110.7257	39.8600	118	-94	230	100791	0.45 
30.284	-1.1738	-0.2559	1.7466	3.2959	18.7378	18.0054	0.5713	35.2826	114.2963	39.8500	116	-98	230	100790	0.45 
30.347	-1.2378	0.1299	2.0288	3.1128	10.6812	35.7666	2.9059	35.2936	116.7242	39.8600	117	-106	230	100790	0.45 
30.488	-1.0635	0.0459	1.9351	-4.0894	-22.1558	39.6118	3.5925	33.7500	119.6796	39.8800	117	-115	229	100790	0.45 
30.534	-1.4287	0.2358	1.9131	4.0283	-10.8643	-35.4614	2.5269	34.7443	119.7455	39.8600	116	-119	233	100790	0.45 
30.659	-1.2056	-0.2227	1.4824	11.1084	-12.2681	-5.0659	3.3673	33.9642	120.4816	39.8700	116	-120	229	100790	0.45 
30.738	-1.1182	0.2383	1.5796	12.2070	2.0752	-18.7378	3.5706	34.1840	117.2845	39.8300	112	-123	227	100790	0.45 
30.863	-1.0850	-0.0088	1.8384	1.1597	8.4839	-45.5322	1.4227	34.1675	113.7689	39.8400	114	-117	227	100790	0.45 
30.941	-0.8848	0.0020	2.1206	4.3945	-33.7524	-25.8789	0.0330	33.4973	110.7861	39.8300	115	-107	228	100790	0.45 
31.092	-1.9463	0.2866	1.7988	12.1460	-26.3672	50.7202	1.1316	33.5577	110.4950	39.8300	111	-107	230	100790	0.45 
31.163	-1.3462	0.2173	1.8125	-3.1128	-24.7803	-35.6445	0.5933	34.0192	111.0938	39.8300	116	-110	230	100790	0.45 
31.288	-1.1104	-0.1157	1.4272	-28.2593	-1.1597	44.1284	-0.0275	33.6676	113.0109	39.8400	114	-107	228	100789	0.45 
31.462	-1.0693	-0.0156	1.7104	3.1738	-7.6294	30.7007	0.9064	34.6069	116.7902	39.8300	116	-114	232	100789	0.45 
31.509	-1.2803	-0.1323	2.3423	-4.8218	13.7939	27.7710	3.2245	35.5737	120.9045	39.8300	117	-121	238	100789	0.45 
31.556	-1.8022	-0.1704	1.9746	-9.1553	14.7705	-1.1597	3.6584	34.9255	122.7997	39.8300	115	-126	238	100790	0.45 
31.697	-1.5137	0.2197	2.1885	2.8687	18.1885	-9.5825	1.9336	35.8374	120.5969	39.8500	120	-125	242	100790	0.45 
31.837	-1.0952	-0.0669	1.4585	22.4609	0.3662	-33.3252	2.4060	34.5959	119.9487	39.8000	123	-122	239	100790	0.45 
31.916	-1.2002	0.0923	1.7368	2.6245	1.5869	-32.7148	2.1643	35.1617	116.3782	39.8200	120	-121	241	100790	0.45 
32.041	-1.2388	0.1011	2.1616	-3.1738	15.0757	-28.5034	0.2472	35.2716	113.1647	39.8000	124	-112	239	100790	0.45 
32.116	-1.1938	0.1035	2.0093	3.3569	-1.1597	-22.0337	0.0824	33.2391	112.1539	39.8100	124	-103	239	100790	0.45 
32.288	-1.4219	-0.3389	1.9746	1.2817	26.7944	15.6250	2.2247	33.3710	114.5050	39.8200	122	-103	237	100789	0.45 
32.350	-1.1387	0.2632	1.3618	-16.4795	-0.7935	-3.6011	0.1703	33.9697	112.4835	39.8100	124	-99	239	100789	0.45 
32.475	-1.2109	-0.2427	1.6274	-11.9629	21.0571	43.0908	0.1813	35.6012	115.9442	39.8200	123	-99	237	100789	0.45 
32.538	-1.0898	0.0718	1.9478	9.6436	10.0098	28.8086	2.4225	36.0022	118.8721	39.8300	129	-106	245	100789	0.45 
32.725	-1.0059	0.1699	2.2085	-10.0098	-38.8184	32.6538	3.9606	35.1178	122.0087	39.8300	126	-112	245	100789	0.45 
32.866	-1.4658	0.1641	1.7993	-6.7749	-20.0195	-22.6440	3.5596	34.2224	124.1290	39.8500	123	-120	239	100789	0.45 
32.929	-1.2427	-0.2236	1.4849	8.6060	-26.4893	6.0425	4.2517	33.5413	124.5795	39.8300	119	-117	237	100789	0.45 
32.975	-1.1035	0.1992	1.5225	23.8037	-2.3804	-43.7622	4.0485	33.4753	119.8718	39.8300	120	-112	234	100789	0.45 
33.143	-1.0073	0.0430	1.8853	0.0000	10.0708	-35.7666	2.6422	34.0796	115.7465	39.8300	119	-103	229	100789	0.45 
33.195	-0.9424	0.1733	2.1309	0.0610	-38.6963	-9.8267	1.3733	33.6896	112.6868	39.8500	122	-90	235	100790	0.45 
33.304	-1.6851	0.0073	1.8125	-2.5635	-12.2070	31.9214	3.0048	33.3215	114.0161	39.8500	120	-90	231	100790	0.45 
33.484	-1.2603	0.2593	1.6519	-13.9771	-18.4326	-16.1743	1.7358	33.7610	113.2141	39.8300	122	-87	235	100790	0.45 
33.580	-1.1436	-0.1709	1.4658	-30.0293	-2.5635	42.8467	0.7910	33.4149	115.2521	39.8400	122	-86	230	100790	0.45 
33.756	-1.1499	0.0254	1.8804	-2.3193	-5.5542	46.3867	2.1698	34.1400	119.1742	39.8500	127	-90	231	100790	0.45 
33.787	-1.0938	-0.1504	1.9370	-10.3760	-19.0430	51.0864	5.0262	32.6733	125.2057	39.8600	128	-104	230	100790	0.45 
33.928	-1.3120	-0.1382	1.6992	-14.7095	2.1973	65.9180	5.6689	30.1300	129.4135	39.8600	127	-115	224	100790	0.45 
33.975	-1.7866	0.8008	2.1616	23.8647	18.5547	-32.2876	3.4167	32.9700	125.0409	39.8800	130	-118	222	100790	0.45 
34.133	-1.2441	-0.0811	1.5776	21.3013	10.2539	-18.8599	4.2297	33.8818	123.9642	39.8400	134	-113	227	100790	0.45 
34.273	-1.1563	0.2231	1.6592	11.6577	23.1323	-9.9487	4.4879	35.1178	121.7065	39.8400	135	-108	228	100789	0.45 
34.305	-1.1040	-0.0122	1.7783	6.1035	1.2817	-36.0107	3.6859	36.0461	119.2126	39.8500	138	-103	233	100790	0.45 
34.352	-1.1909	0.1724	1.8936	7.5684	0.1221	-17.0288	1.9940	36.4307	115.0653	39.8700	138	-93	231	100790	0.45 
34.555	-1.1064	0.1167	2.1338	10.6812	-30.0293	-44.8608	0.5933	35.2386	111.0828	39.8600	144	-84	233	100790	0.45 
34.680	-2.0396	0.1631	1.8540	7.2021	-31.3721	69.6411	1.3953	34.5465	110.0500	39.8700	136	-74	226	100790	0.45 
34.930	-1.4028	0.1040	1.7671	-1.7700	-15.7471	-48.3398	0.3021	34.2938	109.7644	39.8900	136	-77	226	100789	0.45 
34.993	-1.2666	-0.0161	1.6245	-24.7803	-8.1177	37.0483	-0.6207	34.2993	109.9567	39.8700	138	-75	225	100789	0.45 
35.008	-1.2373	0.0078	1.8271	-2.5024	-0.6104	29.3579	0.1538	34.7772	113.3185	39.8700	144	-79	223	100789	0.45 
35.107	-1.1577	-0.0479	1.8936	-5.6152	-5.7983	39.7949	2.1094	34.1235	117.4329	39.8700	144	-86	225	100788	0.45 
35.354	-1.0801	0.0483	1.7769	-22.5220	-21.7896	77.2095	4.6527	32.2504	124.3542	39.8700	147	-101	226	100788	0.45 
35.400	-1.8755	0.2764	2.0645	-45.7764	-26.1230	42.1143	6.1414	33.5193	133.2422	39.8800	144	-126	229	100788	0.45 
35.400	-1.9600	-0.2290	2.3398	-22.6440	29.6631	119.8730	11.0193	33.9148	146.4587	39.8800	139	-148	228	100788	0.45 
35.525	-1.1436	0.2832	1.7036	-4.1504	29.2969	78.6743	15.3479	31.3110	154.8248	39.8800	131	-180	233	100787	0.45 
35.604	-1.2271	0.1118	1.8101	-16.2964	-18.9819	39.0015	16.6168	29.9597	159.6588	39.8700	115	-203	229	100787	0.45 
35.713	-1.3218	0.0693	1.8960	-4.7607	-3.9063	39.0015	16.3092	28.4656	161.7902	39.8800	104	-212	224	100787	0.45 
35.775	-1.2407	0.1348	1.8125	-5.0659	6.1035	44.1895	17.5781	27.7020	164.9927	39.8600	94	-221	221	100787	0.45 
35.947	-1.2412	0.0444	1.8379	-6.1646	8.9722	36.5601	18.4131	27.5812	168.3435	39.8600	82	-229	224	100787	0.45 
35.979	-1.2598	0.0674	1.8784	2.6245	12.9395	23.0103	19.1052	28.2568	170.5408	39.8600	76	-238	217	100787	0.45 
36.153	-1.2583	0.0850	1.8354	2.6855	10.6812	20.1416	19.9292	28.9984	171.9196	39.8700	75	-239	224	100787	0.45 
36.216	-1.2871	0.0679	1.8457	0.9155	7.2632	10.6812	20.1874	29.7949	172.5128	39.8800	69	-250	228	100787	0.45 
36.356	-1.2822	0.0977	1.8486	1.8921	2.8687	0.4272	19.7974	30.5530	171.7163	39.8900	68	-252	233	100787	0.45 
36.419	-1.2881	0.1196	1.8379	0.8545	-1.2207	-3.0518	18.9679	31.0858	170.0903	39.8700	68	-248	232	100788	0.45 
36.528	-1.2876	0.1084	1.8433	-0.0610	-0.0610	-2.8076	17.9791	31.4813	168.3875	39.8700	69	-249	230	100788	0.45 
36.591	-1.2847	0.0991	1.8398	0.1831	-1.4038	-1.4648	17.0288	31.7834	166.7889	39.8900	72	-252	232	100788	0.45 
36.762	-1.2754	0.0967	1.8423	-0.6714	-0.7324	0.0610	16.2048	31.9812	165.4541	39.8900	73	-249	229	100788	0.45 
36.825	-1.2651	0.0884	1.8418	-0.4883	-1.8921	0.1221	15.4028	32.1021	164.2621	39.8600	71	-249	233	100788	0.45 
36.966	-1.2681	0.1040	1.8477	0.0000	-1.9531	-1.2817	14.6283	32.2614	162.9712	39.8800	70	-247	231	100788	0.45 
37.044	-1.2690	0.0869	1.8423	0.1221	-1.3428	-1.7700	13.8483	32.3767	161.7188	39.8800	71	-246	230	100788	0.45 
37.171	-1.2734	0.0986	1.8457	0.4883	-0.4272	-1.4648	13.1506	32.5031	160.5103	39.8700	72	-247	231	100788	0.45 
37.233	-1.2607	0.0859	1.8511	-0.1221	-0.9766	-0.8545	12.5299	32.6294	159.5105	39.8900	74	-249	230	100789	0.45 
37.358	-1.2690	0.0845	1.8413	0.6104	-1.4038	-1.9531	11.9366	32.7008	158.4998	39.9000	70	-245	228	100789	0.45 
37.452	-1.2661	0.0918	1.8389	0.1831	-0.8545	-4.2114	11.2280	32.8326	157.2693	39.9000	77	-245	232	100789	0.45 
37.577	-1.2534	0.0933	1.8438	-0.4883	-0.8545	-2.0752	10.5634	32.9645	156.1487	39.9000	76	-246	229	100789	0.45 
37.655	-1.2485	0.0874	1.8574	-1.1597	-0.7324	-0.3052	9.9261	33.1183	155.2698	39.9100	73	-245	232	100789	0.45 
37.796	-1.2520	0.0815	1.8496	-0.7324	0.1831	0.2441	9.4043	33.1293	154.6490	39.9000	72	-243	229	100789	0.45 
37.983	-1.2603	0.0791	1.8496	-0.6714	1.5869	1.7090	9.0527	33.2501	154.2041	39.9200	76	-242	232	100788	0.45 
38.014	-1.2671	0.0938	1.8618	0.1831	1.0986	2.5635	8.7671	33.4259	153.7866	39.9400	76	-246	231	100789	0.45 
38.174	-1.2588	0.0713	1.8481	-0.0610	0.5493	1.4038	8.4760	33.4863	153.4021	39.9300	78	-243	227	100789	0.45 
38.226	-1.2607	0.0850	1.8599	0.7324	0.1831	1.2207	8.3002	33.5797	153.0450	39.9200	77	-243	224	100788	0.45 
38.419	-1.2686	0.0884	1.8569	0.2441	2.1362	2.8076	8.1903	33.7115	152.8583	39.9400	75	-247	228	100788	0.45 
38.551	-1.2734	0.0996	1.8560	0.7935	4.0283	1.4648	8.1409	34.0466	152.7264	39.9500	74	-246	230	100788	0.45 
38.618	-1.2642	0.0967	1.8447	0.2441	-0.3052	3.7842	8.1409	34.1345	152.6495	39.9700	75	-243	228	100788	0.45 
38.618	-1.2729	0.0884	1.8472	-0.0610	-0.3662	2.8076	8.0695	34.1016	152.5671	39.9600	74	-246	229	100788	0.45 
38.790	-1.2700	0.0923	1.8379	-0.0610	-0.1221	-0.5493	7.8333	34.1455	152.1771	39.9800	74	-246	228	100788	0.45 
38.853	-1.2686	0.0957	1.8496	-0.1831	-0.3662	-1.8921	7.4103	34.2554	151.4795	39.9900	76	-246	231	100788	0.45 
38.978