StartTime: 2017-07-12 15:48:33.958
Time(s)	ax(g)	ay(g)	az(g)	wx(deg/s)	wy(deg/s)	wz(deg/s)	AngleX(deg)	AngleY(deg)	AngleZ(deg)	T(°)	hx	hy	hz	Pressure(Pa)	Altitude(m) 
98.599	-1.1602	-0.0811	1.8730	-0.1221	0.3662	0.6104	-2.7795	31.7834	159.1864	44.7300	25	-275	161	100758	0.47 
98.630	-1.1533	-0.0742	1.8662	-0.3662	0.9155	0.3662	-2.7576	31.8164	159.0875	44.7600	25	-272	161	100758	0.47 
98.818	-1.1538	-0.0796	1.8652	-0.0610	-0.1831	1.4038	-2.6971	31.8219	159.0710	44.7400	28	-273	160	100758	0.47 
99.056	-1.1538	-0.0752	1.8638	0.0000	-1.0986	1.2817	-2.6038	31.7175	159.1040	44.7400	27	-272	161	100758	0.47 
99.056	-1.1387	-0.0767	1.8706	-0.0610	-1.1597	1.9531	-2.5323	31.5967	159.1370	44.7500	23	-272	162	100758	0.47 
99.056	-1.1235	-0.0508	1.8745	0.6104	-5.2490	6.7749	-2.2906	31.2891	159.4336	44.7800	23	-273	161	100758	0.47 
99.237	-1.1494	-0.0688	1.8765	1.8921	-3.6621	9.3384	-1.4557	30.9979	160.5432	44.7900	23	-275	161	100758	0.47 
99.315	-1.1118	-0.0317	1.8726	-1.0376	-4.3945	2.8687	-1.0822	30.6628	161.0541	44.7600	15	-276	159	100758	0.47 
99.456	-1.1021	-0.0137	1.8770	-7.9956	-10.0708	9.3994	-1.1646	30.0421	161.6364	44.7700	14	-276	162	100758	0.47 
99.549	-1.1255	-0.1040	1.8398	-11.5967	-18.8599	10.3760	-1.5656	28.6688	162.8833	44.8000	7	-274	156	100759	0.47 
99.690	-1.0986	-0.0938	1.9214	1.1597	-7.2632	-10.5591	-2.0764	27.4823	162.6471	44.7800	-1	-271	150	100758	0.47 
99.752	-0.9341	-0.0825	1.9663	-4.0894	-11.9019	-8.0566	-3.0377	26.4276	160.9277	44.7800	-1	-271	154	100759	0.47 
99.846	-0.9106	-0.1680	1.8140	-3.9063	-10.4370	-6.1035	-3.9331	25.0873	160.6970	44.7900	-6	-269	148	100758	0.47 
99.915	-0.9253	-0.1519	1.8716	6.8359	-5.0659	-4.5776	-4.1364	24.7961	160.4773	44.7800	-7	-268	148	100759	0.47 
100.106	-0.8828	-0.1069	1.7661	18.7988	-5.0049	15.8691	-2.4719	24.3237	161.7078	44.8100	-6	-269	146	100759	0.47 
100.294	-0.7876	-0.1025	1.6074	26.3672	-13.9771	18.3105	0.4230	23.4558	163.9050	44.8000	-19	-276	155	100760	0.47 
100.450	-0.8398	-0.0820	1.4067	17.2729	-8.1787	1.2207	2.8455	22.5989	165.1300	44.7900	-29	-288	159	100760	0.47 
100.466	-1.5996	-0.5557	2.6958	-18.9209	77.0874	-37.2925	2.3181	26.0156	164.6082	44.7800	-34	-288	160	100761	0.47 
100.466	-0.8623	0.2231	1.9878	1.8311	37.3535	26.9775	-0.8405	25.9552	157.0880	44.7900	-8	-283	157	100762	0.47 
100.582	-0.9692	0.2139	1.7031	11.2915	-20.3247	-17.3950	-0.5603	26.8066	157.1704	44.7800	0	-285	163	100762	0.47 
100.644	-1.0391	-0.1592	1.7163	9.7656	6.8970	12.7563	1.1975	27.3230	159.0601	44.7600	-4	-286	164	100762	0.47 
100.675	-0.9785	0.1670	1.7471	6.8359	-4.6387	-14.7095	1.5436	27.5702	157.8735	44.7600	-5	-294	175	100762	0.47 
100.881	-0.9590	-0.0400	1.5171	-4.3945	-20.5688	-37.5977	0.3241	26.5265	156.0004	44.7600	2	-289	172	100762	0.47 
101.074	-0.8369	0.2002	1.7275	-24.9023	-1.4648	-25.5737	-2.9498	25.1202	152.2375	44.7600	3	-287	172	100762	0.47 
101.074	-0.9795	-0.0288	1.7993	-10.1929	-6.8359	-2.5024	-5.3668	23.5712	151.8915	44.7700	-1	-278	163	100762	0.47 
101.136	-1.4224	-0.2319	3.0903	17.1509	7.3853	72.3267	-3.3838	25.3839	155.1270	44.7800	-6	-276	158	100762	0.47 
101.324	-1.3145	0.1880	2.5293	0.4883	34.3628	-32.5317	-3.7244	25.0433	154.8413	44.7600	-15	-280	163	100763	0.47 
101.464	-0.9355	-0.1416	1.5449	-10.8643	16.0522	7.4463	-4.1583	25.2576	156.2091	44.7500	-12	-281	162	100763	0.47 
101.652	-1.0581	-0.1816	1.8462	5.2490	14.1602	17.8833	-4.0320	27.9327	157.6318	44.7300	-11	-280	163	100763	0.47 
101.730	-0.9604	-0.0068	1.5830	19.8364	-20.6299	22.2778	-2.0490	27.1033	159.3896	44.7300	-12	-282	173	100764	0.47 
101.730	-0.8394	-0.1143	1.2632	7.3242	-11.7798	39.4287	1.3953	24.9170	163.4546	44.7500	-31	-285	177	100764	0.47 
101.808	-1.6860	0.1763	3.1680	-8.6060	-6.4697	-57.4341	0.1044	28.2513	164.6686	44.7400	-42	-284	178	100764	0.47 
101.886	-1.0552	0.0757	2.6465	9.5215	44.6777	12.6343	-0.6152	27.8558	162.8613	44.7200	-38	-283	177	100764	0.47 
102.012	-0.9463	0.1108	1.6650	7.0190	10.1318	-1.0376	0.6921	28.1360	163.6688	44.7300	-30	-284	180	100764	0.47 
102.090	-1.0269	-0.0381	1.5493	-7.6904	1.0376	-6.7139	0.9119	29.3225	164.1193	44.7100	-26	-287	186	100765	0.47 
102.230	-1.0063	0.0889	1.3794	-9.3384	-0.1831	-26.1841	-1.8292	29.4489	160.8344	44.7200	-20	-283	183	100765	0.47 
102.293	-0.9282	0.1816	1.6919	-13.5498	-29.3579	-1.0376	-3.5760	28.3173	159.7357	44.7100	-15	-278	178	100765	0.47 
102.465	-1.3618	-0.2183	2.5342	19.5923	15.9302	56.8848	-2.0435	28.3832	163.2294	44.7200	-21	-277	177	100765	0.47 
102.465	-0.7261	-0.1094	2.1821	2.7466	16.0522	-37.0483	-0.6262	26.9000	166.1737	44.7000	-37	-281	185	100765	0.47 
102.637	-0.8496	-0.0713	1.5176	0.2441	-12.4512	-4.0894	-1.4008	26.6968	164.8553	44.6900	-29	-283	187	100766	0.47 
102.699	-0.9609	-0.0132	1.5732	5.0659	6.6528	8.4229	-1.3239	27.7625	164.8663	44.7000	-31	-282	187	100766	0.47 
102.824	-0.8442	-0.1353	1.4922	16.7847	-7.6904	8.4229	0.9448	27.0099	167.0526	44.6900	-32	-284	191	100766	0.47 
102.919	-1.2803	0.1138	2.0425	-13.3057	25.5127	5.3711	1.7633	27.0813	167.0197	44.7000	-33	-288	196	100767	0.47 
103.027	-0.9614	0.2852	2.4463	-18.1885	-2.5024	6.1646	-0.2307	26.2683	165.0916	44.6800	-24	-288	200	100767	0.47 
103.105	-0.9849	-0.0771	1.9424	-0.3662	21.3013	16.6016	0.5933	26.1310	166.6241	44.6700	-28	-285	197	100767	0.47 
103.215	-0.9590	0.2036	1.4624	3.1738	17.8223	11.5967	1.8347	27.5592	166.9043	44.6800	-21	-293	202	100767	0.47 
103.324	-0.8843	0.0073	1.5376	-18.2495	-6.2256	-5.0659	1.0876	28.6578	167.7832	44.6700	-21	-291	202	100767	0.46 
103.449	-0.9707	0.0889	1.7632	-19.2871	-11.4746	-7.8735	-1.0107	28.5370	166.9977	44.6700	-19	-288	197	100768	0.46 
103.652	-1.2832	-0.2163	2.0264	-1.8921	40.8936	0.7935	-2.3181	28.9655	166.3275	44.6800	-20	-286	197	100768	0.46 
103.668	-0.9004	-0.4570	2.1099	-11.1084	-47.0581	29.7852	-1.2909	30.4596	169.1345	44.6900	-16	-287	194	100768	0.46 
103.668	-1.0952	0.0229	1.9204	1.2207	-10.3760	-4.3335	-2.8729	29.2072	167.1185	44.6800	-20	-285	193	100769	0.46 
103.871	-0.9053	-0.2388	1.7070	5.8594	-10.4370	2.3193	-2.0929	28.1030	167.6514	44.6700	-22	-286	192	100769	0.46 
103.937	-0.9541	-0.0684	1.6685	16.2964	-13.7329	11.9019	-0.5878	27.3944	167.4701	44.6700	-21	-289	193	100769	0.46 
104.078	-0.9526	0.0576	1.6191	8.7280	-4.0283	12.6343	1.1865	26.3177	168.5358	44.6700	-28	-292	198	100769	0.46 
104.140	-1.1953	0.2168	2.2422	-1.8921	-16.1133	-1.0376	0.3900	27.7789	169.6179	44.6600	-34	-298	199	100769	0.46 
104.331	-0.8687	-0.1030	1.9854	8.9111	-19.1650	10.8032	0.1648	27.1362	171.3373	44.6700	-36	-294	196	100769	0.46 
104.346	-1.0078	0.0483	1.7603	5.8594	-0.8545	-18.0664	0.3131	27.2241	171.4087	44.6900	-39	-295	196	100769	0.46 
104.487	-0.9497	0.1255	1.4922	-14.1602	-19.8364	29.3579	0.7086	26.9495	171.9635	44.6700	-41	-291	198	100770	0.46 
104.643	-0.8447	0.0142	1.6836	-12.0850	-8.2397	6.5918	-0.2911	26.2738	173.8696	44.6600	-52	-286	193	100770	0.46 
104.721	-1.3599	-0.0718	2.0811	16.6626	25.1465	-45.6543	-1.5765	26.4716	171.1725	44.6800	-54	-285	188	100770	0.46 
104.753	-0.8989	-0.2856	2.3696	20.3857	-9.2773	-30.9448	-0.9833	26.2518	168.3490	44.6600	-40	-289	198	100770	0.46 
104.815	-0.9219	0.0728	1.9263	9.3994	6.2256	-14.1602	-1.2744	24.6973	165.5859	44.6700	-31	-288	200	100771	0.46 
105.087	-0.8164	-0.2188	1.5425	-0.6104	10.6812	-8.4229	-1.1975	25.0378	165.7288	44.6800	-31	-292	206	100771	0.46 
105.167	-0.9927	0.1616	1.7612	7.0190	-7.6294	8.3008	-1.4008	26.3177	163.6029	44.6700	-18	-292	207	100771	0.46 
105.167	-1.0068	-0.0713	1.6875	-6.2866	29.7241	36.1328	0.0989	26.5759	166.8164	44.6800	-26	-292	208	100772	0.46 
105.287	-1.3442	0.5059	2.2490	-0.7324	-7.4463	-3.7231	-1.2744	30.1959	167.5470	44.6900	-23	-290	209	100772	0.46 
105.367	-1.1733	-0.1177	2.0703	4.2114	-2.7466	21.6675	-0.3461	29.9542	171.6998	44.6600	-33	-286	205	100773	0.46 
105.471	-0.8799	-0.0205	1.3789	9.2773	-3.7842	13.1226	1.4447	28.6359	173.7872	44.6400	-42	-278	205	100773	0.46 
105.567	-0.8760	0.0215	1.5151	-10.3149	-14.8926	-20.0195	0.8459	28.7842	173.0731	44.6300	-44	-283	207	100773	0.46 
105.759	-1.0298	-0.0786	1.9785	-9.4604	-18.9209	-33.7524	-1.6589	28.1689	170.2386	44.6400	-43	-280	206	100773	0.46 
105.884	-1.6089	0.0225	2.7764	12.6343	21.4844	16.8457	-1.6919	29.0369	168.6182	44.6400	-38	-276	204	100774	0.46 
105.987	-1.3628	-0.2026	2.7197	2.8687	22.5220	3.4180	-1.2964	28.8611	169.9915	44.6300	-38	-274	205	100774	0.46 
105.987	-1.0654	-0.0151	1.8193	-0.3662	37.9028	-2.0142	-2.2961	28.5480	169.1840	44.6300	-38	-273	207	100774	0.46 
106.127	-0.9224	-0.2192	1.5366	12.6343	1.2207	10.6201	-1.8237	29.8059	169.7168	44.6300	-31	-275	210	100774	0.46 
106.221	-0.9517	-0.0146	1.6997	21.3623	-5.7373	5.2490	0.3076	29.5862	169.9310	44.6300	-32	-277	211	100774	0.46 
106.424	-1.2617	-0.1025	1.9492	-15.6250	31.8604	6.4087	1.1975	29.4543	170.5463	44.6300	-35	-275	213	100775	0.46 
106.549	-1.2451	-0.1553	2.6021	-23.2544	4.5776	4.1504	-0.9668	30.2948	169.7882	44.6300	-32	-274	224	100775	0.46 
106.627	-1.1919	0.0400	1.9678	6.2866	19.4092	-0.1221	0.1318	29.6576	170.4968	44.6200	-30	-274	219	100776	0.46 
106.627	-1.0435	0.0010	1.6055	-0.1221	20.0806	0.1831	1.1975	30.4651	170.0848	44.6200	-30	-276	224	100776	0.46 
106.783	-0.8525	-0.0122	1.3794	-9.5215	-9.7046	-22.8271	-0.0824	30.9375	168.2172	44.6300	-28	-275	226	100777	0.46 
107.004	-0.9351	0.1587	1.7056	-1.0986	-4.5776	-14.0991	-2.4335	30.8057	165.2893	44.6300	-15	-273	225	100777	0.46 
107.067	-1.4116	0.0645	2.3901	17.6392	33.2031	19.8364	-2.4719	30.8716	165.3223	44.6300	-16	-271	229	100778	0.46 
107.176	-1.0830	-0.0444	2.5063	9.0942	-13.2446	-20.2637	-0.5603	29.8114	166.8164	44.6400	-20	-270	231	100778	0.46 
107.364	-1.0161	-0.0386	1.8550	-5.7983	-16.1743	11.8408	-1.6260	28.2239	165.9155	44.6200	-22	-272	232	100778	0.46 
107.364	-1.0186	-0.1460	1.5620	2.5635	8.6670	26.3062	-0.8624	28.6304	167.6129	44.6000	-23	-271	228	100779	0.45 
107.582	-0.9438	-0.1685	1.4121	14.1602	-7.2632	14.7095	1.2854	28.3777	169.5465	44.6000	-24	-270	231	100779	0.45 
107.582	-0.9985	0.0571	1.2974	2.3193	8.2397	3.6621	2.3126	27.9327	168.7445	44.6000	-24	-271	238	100779	0.45 
107.661	-1.0742	0.2271	2.7095	-10.2539	-59.6313	-16.8457	-0.5438	29.5972	165.2563	44.5900	-15	-272	240	100780	0.45 
107.807	-1.0371	-0.0366	2.3149	1.8311	-4.2725	18.0054	-0.4449	28.2843	165.5585	44.6000	-12	-269	240	100780	0.45 
107.885	-0.9902	0.0317	1.4507	12.0850	0.6104	-1.5259	0.5493	27.5922	165.0421	44.5900	-6	-271	243	100781	0.45 
107.988	-1.0303	-0.0112	1.3979	-9.6436	20.3857	-0.5493	1.0547	29.0094	164.4379	44.5700	-5	-271	243	100781	0.45 
108.066	-0.9004	0.0308	1.5894	-14.2212	9.5825	-8.5449	-0.9174	30.0421	162.7625	44.5800	0	-272	246	100781	0.45 
108.160	-0.9941	0.1006	1.5508	-16.3574	-5.1880	12.6343	-2.4609	29.7180	162.0483	44.5800	9	-269	241	100781	0.45 
108.191	-2.1147	-0.2329	4.2378	-6.5918	92.8345	63.5376	-2.2028	33.6401	163.5590	44.5800	12	-263	244	100782	0.45 
108.254	-1.3535	-0.2148	2.4800	-9.4604	18.1274	-1.9531	-1.8073	31.2341	166.2451	44.5800	6	-263	241	100782	0.45 
108.442	-1.0542	-0.0640	1.3960	0.0000	0.4272	29.9072	-1.2854	29.9982	166.6516	44.5400	1	-264	235	100782	0.45 
108.583	-1.0566	-0.1104	1.6577	16.3574	-5.3711	22.2778	0.0220	30.9320	168.3270	44.5400	-5	-263	231	100782	0.45 
108.786	-1.4717	-0.0972	2.3501	7.9346	13.2446	7.3853	2.4774	32.0361	170.3265	44.5500	-8	-267	237	100782	0.45 
108.848	-1.2168	-0.0181	1.8735	6.1035	45.3491	-6.7139	3.0981	33.0469	170.1617	44.5600	-10	-265	242	100783	0.45 
108.963	-1.2256	-0.0210	1.8843	7.6904	31.0669	-1.4038	3.9935	35.3925	169.8981	44.5600	-7	-270	243	100783	0.45 
109.037	-1.2124	0.0205	1.8779	9.2163	14.1602	-3.4790	4.2407	36.6010	168.6237	44.5600	-5	-272	245	100783	0.45 
109.037	-1.1885	0.0225	1.8345	10.1318	5.1270	-0.3662	4.8724	36.8207	167.6843	44.5600	0	-273	249	100783	0.45 
109.162	-1.1289	0.0293	1.7349	9.2773	-1.9531	-6.5918	4.8669	36.2988	165.8936	44.5600	5	-273	254	100783	0.45 
109.225	-1.1616	0.0327	1.8691	6.2866	-6.8359	-7.8125	4.7571	36.1395	164.2072	44.5800	5	-273	258	100783	0.45 
109.365	-1.2031	0.0371	1.9155	2.2583	-3.4180	-4.9438	4.1968	35.4968	162.5977	44.5800	7	-273	261	100783	0.45 
109.444	-1.1680	0.0190	1.8774	-3.6011	-0.5493	7.3242	3.8672	34.6069	162.1637	44.5800	7	-276	258	100783	0.45 
109.615	-1.1577	0.0762	1.8350	-13.9771	2.1362	31.4941	4.1638	34.4257	163.7567	44.6000	1	-275	254	100783	0.45 
109.631	-1.1450	-0.0693	1.8657	-5.9814	-14.3433	24.1699	4.6417	33.7610	166.7120	44.6000	-8	-273	250	100783	0.45 
109.772	-1.1113	-0.0195	1.8496	-0.8545	-11.1084	5.0659	4.6527	32.6184	167.3328	44.5900	-11	-275	251	100783	0.45 
109.850	-1.1392	-0.0322	1.9067	-1.1597	-2.0142	-10.9253	3.8672	32.2614	166.1023	44.6100	-13	-274	248	100783	0.45 
110.045	-1.1479	-0.0166	1.8374	4.3335	0.3662	-8.9111	3.1036	32.0581	164.2236	44.6100	-14	-274	245	100783	0.45 
110.241	-1.1460	-0.0093	1.8110	6.1646	-4.1504	-7.3242	2.8674	31.7340	162.4219	44.6100	-8	-272	250	100784	0.45 
110.245	-1.0962	-0.0313	1.8916	2.2583	-5.5542	-9.2773	2.6697	32.2284	161.1200	44.6100	-9	-274	250	100784	0.45 
110.317	-1.0757	0.0366	1.8394	-0.3052	-1.4648	-5.2490	2.1313	32.1295	159.7906	44.6100	-2	-275	257	100784	0.45 
110.421	-1.1304	0.0005	1.8003	-3.7842	-0.5493	-0.0610	1.5216	32.0911	159.0436	44.6300	4	-277	252	100784	0.45 
110.493	-1.0894	-0.0249	1.8022	-4.2114	5.3101	1.4038	1.1261	31.8384	158.8348	44.6100	0	-276	253	100783	0.45 
110.662	-1.1445	-0.0200	1.8125	-1.4038	-8.4229	5.4932	0.8569	31.9647	158.8129	44.6200	0	-274	253	100784	0.45 
110.755	-1.1553	-0.0166	1.8633	-1.2207	-5.3101	8.5449	0.9009	32.1185	159.1644	44.6300	-3	-273	250	100783	0.45 
110.849	-1.2153	-0.0322	1.9341	-4.3945	0.1221	9.6436	0.9283	32.6074	159.8621	44.6400	-3	-270	247	100783	0.45 
110.880	-1.1157	-0.0098	1.8604	-3.5400	0.6714	10.5591	1.0767	32.4097	160.7025	44.6300	-7	-271	247	100783	0.45 
111.026	-1.0513	-0.0459	1.8159	-5.4321	-10.3149	20.1416	1.4447	32.3383	162.3230	44.6600	-10	-273	246	100783	0.45 
111.183	-1.3892	-0.0835	1.9956	-4.0894	11.5967	10.9863	1.6974	32.8986	163.6249	44.6600	-15	-271	245	100783	0.45 
111.245	-1.0688	-0.0234	1.8877	-2.9297	27.3438	-3.7842	1.7413	32.0966	163.8171	44.6600	-19	-275	242	100783	0.45 
111.276	-1.0830	0.0620	1.7891	0.4883	-39.8560	20.1416	1.8512	32.0142	163.8885	44.6500	-18	-274	247	100783	0.45 
111.464	-1.3242	-0.0830	2.0435	-3.6011	0.6104	21.5454	2.5269	31.9373	166.0803	44.6500	-30	-275	244	100783	0.45 
111.589	-0.9771	-0.0439	1.7124	0.6714	-28.1372	9.9487	2.9718	30.8441	167.2009	44.6500	-32	-273	243	100784	0.45 
111.667	-1.2847	-0.0283	1.8960	-1.5259	1.5259	-2.4414	2.7521	31.9098	167.0142	44.6400	-33	-275	245	100784	0.45 
111.823	-0.8828	-0.0044	1.5859	-1.5869	-5.0049	3.8452	2.4500	30.7343	166.6022	44.6400	-32	-278	245	100784	0.45 
111.823	-1.0396	-0.0293	1.6870	3.8452	-24.9023	-1.9531	2.2852	30.5914	166.3055	44.6300	-36	-275	242	100784	0.45 
112.012	-1.1187	-0.0391	1.8369	1.4648	-17.0898	2.3804	2.3236	30.2509	166.0583	44.6600	-34	-275	239	100784	0.45 
112.091	-1.0938	-0.0371	1.8516	0.0610	-13.9771	-1.0986	2.0270	29.0588	165.3882	44.6400	-38	-273	242	100784	0.45 
112.200