StartTime: 2017-07-12 15:53:07.203
Time(s)	ax(g)	ay(g)	az(g)	wx(deg/s)	wy(deg/s)	wz(deg/s)	AngleX(deg)	AngleY(deg)	AngleZ(deg)	T(°)	hx	hy	hz	Pressure(Pa)	Altitude(m) 
180.886	-1.2275	-0.0693	1.8506	-0.2441	1.2817	4.0894	-1.7413	33.6072	155.0665	44.5000	4	-256	213	100780	0.45 
180.949	-1.2349	-0.0625	1.8486	0.0000	0.9155	0.9155	-1.5656	33.6951	155.2917	44.4900	5	-257	216	100780	0.45 
181.121	-1.2236	-0.0645	1.8491	-0.0610	-0.1221	-1.4038	-1.6205	33.7225	155.1270	44.5100	6	-257	217	100780	0.45 
181.152	-1.2300	-0.0664	1.8491	-0.2441	0.3052	-1.5869	-1.7633	33.7115	154.7974	44.5200	5	-256	216	100779	0.45 
181.308	-1.2354	-0.0591	1.8564	-0.1831	0.5493	-0.7935	-1.8732	33.7390	154.4897	44.5100	5	-257	216	100780	0.45 
181.355	-1.2354	-0.0601	1.8486	0.3052	0.3662	-1.0986	-1.9501	33.7994	154.2645	44.5100	6	-255	216	100780	0.45 
181.558	-1.2407	-0.0649	1.8521	-0.9766	1.1597	0.7935	-2.0215	33.8818	154.0063	44.5100	8	-255	216	100780	0.45 
181.669	-1.2378	-0.0615	1.8525	-0.3662	0.4272	1.1597	-2.0105	33.9313	153.9679	44.5200	5	-257	215	100780	0.45 
181.712	-1.2368	-0.0625	1.8472	-0.7324	1.1597	0.5493	-2.0105	34.0027	153.9679	44.5100	8	-255	214	100780	0.45 
181.869	-1.2437	-0.0620	1.8486	-1.4648	1.7700	0.7935	-2.0709	34.1235	153.9349	44.5300	8	-257	215	100780	0.45 
181.900	-1.2466	-0.0791	1.8569	-0.1221	1.7090	2.1362	-2.0764	34.2993	153.9899	44.5100	9	-257	216	100780	0.45 
182.103	-1.2510	-0.0430	1.8516	6.2866	1.7700	1.3428	-1.6864	34.4806	153.9349	44.5400	10	-252	221	100780	0.45 
182.134	-1.2495	0.0293	1.8491	3.9673	-3.3569	2.3193	-1.0052	34.3323	154.1107	44.5300	8	-258	215	100780	0.45 
182.275	-1.2192	0.0205	1.8364	-6.1035	-1.4038	7.0801	-0.6152	33.9642	154.8798	44.5300	6	-258	221	100780	0.45 
182.369	-1.2378	-0.0034	1.8608	-9.9487	-2.0142	6.2866	-0.9283	33.8763	155.8685	44.5400	4	-258	217	100780	0.45 
182.478	-1.2388	-0.0342	1.8525	-8.6060	-6.3477	1.9531	-1.5161	33.4808	156.3245	44.5400	3	-255	211	100779	0.45 
182.542	-1.2388	-0.0088	1.8564	-3.8452	-8.0566	-8.9722	-2.3236	32.9205	155.6598	44.5400	0	-257	213	100779	0.45 
182.694	-1.2305	-0.0078	1.8208	-3.1128	-11.7798	-13.6719	-3.1476	31.9592	154.3469	44.5400	0	-247	208	100779	0.45 
182.770	-1.2100	0.0449	1.8188	-9.2163	-11.3525	-22.0337	-4.5538	30.8221	152.2650	44.5300	4	-249	206	100779	0.46 
182.910	-1.1602	0.0420	1.8062	-19.2261	-13.7329	-26.3062	-6.8719	29.5148	150.0293	44.5300	2	-246	206	100779	0.45 
182.982	-1.1738	0.0923	1.7124	-28.4424	-16.2964	-22.7661	-9.9536	27.8613	147.6508	44.5200	7	-240	197	100779	0.45 
183.116	-1.1709	0.1938	1.5576	-48.1567	9.5825	0.1831	-13.4033	27.6086	146.6345	44.5300	5	-227	190	100779	0.45 
183.178	-1.0620	-0.0947	1.1426	-74.8291	53.8940	-5.3101	-18.4680	30.8221	147.2882	44.5100	4	-214	177	100779	0.45 
183.350	-1.0000	-0.3628	1.2295	-93.2617	82.7637	-69.1528	-30.3827	35.7715	138.3508	44.5000	22	-194	168	100780	0.45 
183.475	-0.9614	-0.8599	1.6196	-154.2969	-58.5327	-165.1001	-47.9333	28.4601	124.1565	44.4600	44	-153	165	100780	0.45 
183.538	-0.3545	-2.9087	1.3818	-291.0156	-111.6333	-61.2793	-70.1312	14.2987	123.6401	44.3800	20	-83	149	100781	0.45 
183.688	-0.5737	-1.2407	0.7974	-110.0464	-17.0898	-9.7656	-87.9840	8.8715	121.6626	44.3000	-8	-13	167	100783	0.45 
183.767	-0.6699	-0.6206	0.6191	-20.5688	-59.6924	75.3174	-92.7411	11.1786	120.1135	44.2700	-11	17	192	100784	0.45 
183.908	-0.8560	-0.6025	0.4897	-4.8218	-13.1226	61.0352	-89.5605	16.7322	117.8888	44.2300	-4	20	198	100785	0.45 
183.939	-0.9570	-1.2710	0.5576	34.7290	-44.1284	111.3281	-84.6002	23.6755	115.9332	44.2200	7	13	195	100785	0.45 
184.127	-1.3931	-0.9771	0.7617	30.2734	-29.1748	167.0532	-75.5145	36.0626	117.8613	44.2200	21	-8	181	100786	0.45 
184.174	-1.6392	-0.8486	0.7627	-16.1133	1.6479	115.3564	-68.9282	51.0205	121.9098	44.2100	42	-37	175	100786	0.45 
184.299	-1.6992	-0.6743	0.7349	-41.1987	32.8979	64.2700	-67.3792	60.4797	121.9922	44.2200	60	-60	177	100786	0.45 
184.392	-1.8193	-0.7002	0.6729	-22.9492	17.0898	-11.8408	-72.1088	62.9132	115.9167	44.1900	78	-60	184	100786	0.45 
184.502	-1.7554	-0.7104	0.5923	10.8032	-6.1035	-11.8408	-72.1088	61.1554	111.5991	44.2100	78	-63	181	100786	0.45 
184.595	-1.6665	-0.6899	0.6895	17.3950	-14.4653	-14.4653	-68.4723	59.2438	109.8523	44.2300	74	-62	181	100786	0.45 
184.722	-1.6685	-0.6899	0.7173	-0.6104	0.3052	-4.5776	-65.7587	58.0463	108.0450	44.2300	70	-62	183	100787	0.45 
184.785	-1.6929	-0.7295	0.6758	-4.5776	2.9297	-1.0986	-65.5829	57.9254	105.0183	44.2300	67	-60	183	100787	0.45 
184.941	-1.6733	-0.7095	0.6821	-0.3662	0.0610	-3.4180	-65.0555	57.6288	102.2937	44.2600	68	-62	187	100787	0.45 
185.003	-1.6753	-0.7231	0.6841	1.3428	-2.1362	-5.1270	-63.8910	57.1893	100.0854	44.2600	68	-57	186	100787	0.45 
185.144	-1.6841	-0.7427	0.6885	2.3193	-2.7466	-6.1035	-62.7594	56.6345	97.8607	44.2900	67	-55	185	100787	0.45 
185.222	-1.6304	-0.7261	0.7031	0.3662	-1.7700	-11.1084	-62.0618	55.4810	95.3284	44.2900	67	-53	178	100787	0.45 
185.331	-1.6650	-0.7778	0.6914	-1.3428	1.1597	-2.5635	-61.6223	55.1733	92.9663	44.2900	65	-55	183	100788	0.45 
185.519	-1.6172	-0.7476	0.7065	-0.9155	0.0000	4.8218	-60.6610	54.8987	91.0986	44.3100	63	-54	184	100788	0.45 
185.581	-1.6602	-0.7568	0.6929	-2.3804	0.5493	7.8125	-59.5514	55.7281	89.9890	44.3200	60	-53	186	100788	0.45 
185.723	-1.6572	-0.7393	0.6895	-0.7324	-0.3662	2.1362	-58.6890	56.1566	88.6597	44.3100	61	-54	181	100788	0.45 
185.802	-1.6509	-0.7397	0.6914	0.2441	-0.9155	1.8311	-57.7991	56.3159	87.3138	44.3300	63	-57	185	100789	0.45 
185.942	-1.6543	-0.7412	0.6953	-0.9766	0.0610	1.7700	-56.9861	56.5137	86.0724	44.3200	65	-54	182	100789	0.45 
185.989	-1.6572	-0.7363	0.6909	-1.0986	0.0000	2.2583	-56.3049	56.7444	84.8749	44.3400	63	-54	186	100789	0.45 
186.130	-1.6636	-0.7383	0.6865	-0.3052	-0.4272	1.0376	-55.6293	56.9531	83.7323	44.3200	62	-56	184	100789	0.45 
186.208	-1.6587	-0.7368	0.6914	-0.3052	-0.3662	1.1597	-55.0140	57.0410	82.6172	44.3300	65	-62	184	100789	0.45 
186.348	-1.6563	-0.7334	0.6938	-0.7324	-0.1831	2.3804	-54.4043	57.2003	81.6559	44.3400	66	-56	182	100789	0.45 
186.411	-1.6675	-0.7363	0.6890	-1.4648	0.1831	2.2583	-53.8330	57.4255	80.7715	44.3600	66	-58	184	100789	0.45 
186.552	-1.6660	-0.7334	0.6880	-0.7935	-0.4272	2.1362	-53.3331	57.6013	79.8596	44.3400	65	-54	184	100789	0.45 
186.630	-1.6655	-0.7314	0.6914	-0.7324	-0.2441	1.3428	-52.7509	57.7661	79.0631	44.3500	66	-58	185	100789	0.45 
186.756	-1.6655	-0.7305	0.6865	-0.9155	0.1831	1.6479	-52.3938	57.9144	78.1567	44.3600	66	-55	184	100789	0.45 
186.944	-1.6660	-0.7285	0.6870	-0.3662	-0.3662	3.3569	-51.8555	58.1122	77.4591	44.3600	66	-52	180	100789	0.45 
187.006	-1.6714	-0.7266	0.6870	-1.0376	0.1221	2.4414	-51.3336	58.3594	76.8494	44.3900	68	-56	185	100789	0.45 
187.131	-1.6738	-0.7246	0.6851	-1.4038	0.8545	2.5024	-50.9875	58.5297	76.1847	44.3800	66	-57	182	100789	0.45 
187.162	-1.6714	-0.7231	0.6821	-0.6714	0.4272	1.5869	-50.7019	58.7164	75.4871	44.3800	68	-54	181	100790	0.45 
187.334	-1.6729	-0.7192	0.6841	-0.5493	-0.1831	3.1128	-50.2789	58.8867	74.9597	44.3900	67	-56	181	100789	0.45 
187.444	-1.6768	-0.7197	0.6807	-1.4038	0.3662	2.4414	-49.9219	59.1119	74.4983	44.3900	68	-55	181	100790	0.45 
187.560	-1.6777	-0.7173	0.6782	-0.3662	-0.3052	1.9531	-49.6088	59.2712	74.0094	44.4100	68	-54	182	100790	0.45 
187.624	-1.6792	-0.7168	0.6812	-0.4883	-0.1831	1.3428	-49.2462	59.3701	73.5150	44.4000	67	-54	184	100790	0.45 
187.752