StartTime: 2017-07-14 14:15:41.614
Time(s)	ax(g)	ay(g)	az(g)	wx(deg/s)	wy(deg/s)	wz(deg/s)	AngleX(deg)	AngleY(deg)	AngleZ(deg)	T(°)	hx	hy	hz	Pressure(Pa)	Altitude(m) 
934.788	-0.1685	-0.0322	1.0195	-1.7090	-0.3662	0.6714	-1.7963	8.0420	92.7850	45.8400	202	-6	-75	100561	0.64 
934.928	-0.1558	-0.0283	1.0366	-0.9766	-4.2114	3.2959	-1.8622	7.8882	92.9553	45.8500	203	-4	-76	100561	0.64 
935.007	-0.1929	-0.0186	1.0322	-2.2583	-11.5967	4.8218	-1.9391	7.3279	93.2849	45.8400	205	-4	-77	100561	0.64 
935.116	-0.1660	-0.0298	1.0034	-4.5776	-22.8882	2.7466	-2.1863	5.7294	93.8177	45.8300	199	-5	-80	100560	0.64 
935.210	-0.1123	-0.0493	1.0430	-2.8076	-35.1563	3.9673	-2.4884	3.0157	94.1968	45.8100	195	-8	-90	100560	0.64 
935.319	-0.0239	-0.0347	1.0264	-7.4463	-47.3022	7.0801	-2.8894	-0.9723	94.9164	45.8300	183	-5	-99	100560	0.64 
935.428	0.0693	-0.0742	1.0332	-6.8970	-58.5327	5.7983	-3.7079	-5.8997	95.7898	45.8300	172	-5	-110	100560	0.64 
935.522	0.1719	-0.0913	0.9653	-11.2915	-75.2563	9.3994	-4.8889	-12.9968	96.9324	45.8300	152	-4	-130	100561	0.64 
935.616	0.3833	-0.0747	0.9463	-12.5732	-70.4346	2.3804	-6.0919	-19.9622	97.8223	45.8200	127	-8	-149	100561	0.64 
935.725	0.4111	-0.1099	0.8867	-14.0991	-66.6504	9.5825	-8.1848	-26.6254	99.3988	45.8300	102	-3	-164	100561	0.64 
935.819	0.5825	-0.1113	0.8379	-14.0991	-54.0771	6.2256	-10.1459	-32.8107	100.9314	45.8300	79	0	-173	100561	0.64 
935.928	0.7046	-0.2241	0.7788	-17.6392	-56.7017	12.5122	-13.6670	-38.0511	104.0295	45.8500	61	5	-182	100560	0.64 
936.023	0.7227	-0.2061	0.6436	-12.0850	-48.8892	10.3760	-17.3309	-43.0334	107.3474	45.8400	40	11	-185	100560	0.64 
936.147	0.9131	-0.2822	0.6558	-4.8828	-35.5835	-8.2397	-20.1324	-46.9061	110.0006	45.8500	21	14	-190	100560	0.64 
936.272	0.8413	-0.2188	0.6079	-5.9204	-8.2397	-12.3291	-21.2970	-50.3778	110.6268	45.8400	6	14	-192	100560	0.64 
936.366	0.6772	-0.2305	0.5181	-6.9580	-28.0762	13.6108	-22.1100	-51.9214	110.9839	45.8400	1	16	-188	100561	0.64 
936.460	0.7998	-0.2061	0.5483	-4.4556	-11.7188	-1.7700	-23.2471	-53.8220	111.9397	45.8400	-6	17	-189	100560	0.64 
936.569	0.9180	-0.2588	0.4839	-3.7842	-18.4937	0.0000	-24.2194	-55.5963	112.5879	45.8500	-13	18	-188	100560	0.64 
936.679	0.8569	-0.2520	0.4331	-1.8311	-10.8032	-2.8076	-24.6313	-57.2662	112.9944	45.8300	-21	19	-190	100560	0.64 
936.804	0.8994	-0.2349	0.4014	-0.1831	12.0239	4.2725	-25.2191	-57.4860	113.5327	45.8500	-26	17	-187	100560	0.64 
936.944	0.7808	-0.1831	0.5679	-3.2959	-3.3569	7.5684	-25.0818	-56.1456	113.4119	45.8400	-19	20	-185	100560	0.64 
936.992	0.8770	-0.2539	0.4561	-0.5493	-0.3662	-0.5493	-26.0651	-56.6071	114.3237	45.8500	-21	23	-188	100560	0.64 
937.101	0.8379	-0.2451	0.5229	-0.5493	2.0142	0.0000	-25.7520	-56.3544	113.9227	45.8300	-18	21	-190	100560	0.64 
937.226	0.8569	-0.2378	0.4746	-0.4883	0.1221	-0.2441	-25.7135	-56.5356	113.8403	45.8300	-21	22	-188	100561	0.64 
937.382	0.8516	-0.2231	0.5049	-0.8545	4.0283	-0.4883	-25.4828	-56.4093	113.5107	45.8400	-19	20	-190	100561	0.64 
937.475	0.8491	-0.2192	0.5093	-0.4883	1.0986	-0.4272	-25.0269	-56.2720	112.9285	45.8300	-20	21	-190	100561	0.64 
937.569	0.8530	-0.2217	0.5571	-2.0142	1.5869	-7.4463	-24.9005	-56.2445	112.7307	45.8300	-19	19	-193	100561	0.64 
937.664	0.8247	-0.2114	0.4785	-1.0986	-11.0474	4.3945	-25.7465	-57.2443	113.5052	45.8200	-19	16	-187	100561	0.64 
937.788	0.7734	-0.2461	0.4785	-0.7324	-11.7798	16.7847	-27.8943	-57.7002	116.1420	45.8300	-21	19	-186	100560	0.64 
937.913	0.9277	-0.2432	0.4160	1.0376	3.4180	17.1509	-30.5804	-58.1836	119.3500	45.8300	-27	23	-187	100561	0.64 
938.007	0.9282	-0.3315	0.3687	3.5400	9.8877	18.2495	-33.0029	-56.8378	122.5195	45.8300	-28	22	-189	100561	0.64 
938.086	0.8916	-0.3335	0.4551	11.4746	27.5269	4.6997	-31.4868	-54.3823	121.6516	45.8200	-20	20	-191	100561	0.64 
938.210	0.7891	-0.2329	0.5376	14.4653	44.7388	-5.0049	-27.2461	-51.1249	117.9712	45.8200	-10	17	-188	100561	0.64 
938.320	0.7295	-0.2148	0.5898	15.9912	55.6641	-10.4370	-22.5220	-46.7578	113.7030	45.8200	10	15	-186	100561	0.64 
938.429	0.7559	-0.2207	0.7734	15.0757	68.8477	-19.0430	-18.0560	-41.3855	109.2920	45.8100	35	6	-182	100561	0.64 
938.523	0.6724	-0.2026	0.9346	15.3809	80.1392	-13.7329	-14.1064	-34.9695	105.3424	45.8300	55	3	-177	100561	0.64 
938.647	0.4590	-0.1602	0.9326	13.7939	70.6177	-10.7422	-10.7501	-28.0481	101.8707	45.8000	83	1	-170	100561	0.64 
938.788	0.2998	-0.1079	0.9463	9.4604	74.1577	-4.0894	-8.4375	-20.9619	99.5251	45.8100	107	-2	-155	100561	0.64 
938.851	0.2090	-0.0898	1.0112	1.8921	68.7866	-5.6763	-7.2784	-13.8208	97.8937	45.8000	136	-5	-139	100561	0.64 
938.960	0.0869	-0.0830	1.0454	6.2866	48.7671	1.5869	-6.5149	-7.8607	96.7346	45.7900	158	-5	-123	100561	0.64 
939.069	0.0093	-0.1074	1.0005	4.8218	39.3066	2.0752	-5.8612	-3.2629	96.3062	45.7900	169	-3	-112	100561	0.64 
939.194	-0.0684	-0.0703	0.9883	4.5776	24.5361	-1.0376	-5.2734	0.1923	95.7239	45.8000	179	-5	-100	100561	0.64 
939.273	-0.1255	-0.0562	1.0156	3.0518	23.1323	1.7700	-4.8230	2.7686	95.4657	45.7800	191	-6	-92	100561	0.64 
939.367	-0.1792	-0.0356	1.0479	3.8452	12.4512	0.0000	-4.2847	4.9054	95.2679	45.7800	194	-8	-85	100560	0.64 
939.507	-0.1533	-0.0503	1.0098	3.3569	5.1880	1.4038	-3.8068	5.9711	95.1471	45.7800	199	-10	-81	100560	0.64 
939.570	-0.1182	-0.0386	1.0146	4.9438	4.7607	-2.0142	-3.3948	6.6138	94.9164	45.7600	199	-9	-77	100559	0.64 
939.694	-0.1660	-0.0264	1.0386	2.1362	1.2207	0.0000	-2.9333	7.0642	94.7516	45.7900	203	-8	-75	100559	0.64 
939.835	-0.1567	-0.0283	1.0127	0.1831	0.1831	2.1973	-2.7411	7.1576	94.9109	45.8100	203	-10	-76	100559	0.64 
939.882	-0.1440	-0.0244	1.0264	-0.4883	-1.3428	1.4038	-2.6642	7.1466	95.0208	45.7800	203	-7	-75	100559	0.64 
940.023	-0.1475	-0.0361	1.0293	-1.5259	-4.9438	2.5024	-2.6697	6.9489	95.0977	45.7900	203	-9	-76	100559	0.64 
940.101	-0.1216	-0.0347	1.0146	-1.6479	-7.3242	2.5635	-2.7576	6.4819	95.2130	45.8000	199	-10	-74	100560	0.64 
940.257	-0.1108	-0.0425	1.0273	-2.1362	-9.0942	1.9531	-2.9059	5.7129	95.4163	45.8000	200	-7	-78	100560	0.64 
940.335	-0.1079	-0.0479	1.0093	-2.0752	-13.3667	3.7231	-3.0322	4.7516	95.6360	45.8100	198	-12	-83	100560	0.64 
940.398	-0.1040	-0.0322	1.0420	-3.8452	-17.7612	0.7935	-3.2849	3.2959	95.7898	45.8300	193	-8	-84	100560	0.64 
940.538	-0.0620	-0.0586	1.0127	-2.5635	-27.0996	4.7607	-3.5541	1.2634	96.0260	45.8000	191	-8	-93	100560	0.64 
940.632	-0.0034	-0.0313	1.0381	-4.4556	-27.7710	2.6855	-3.8507	-1.3568	96.2128	45.8200	181	-6	-101	100561	0.64 
940.741	0.0601	-0.0503	0.9956	-8.9722	-40.9546	10.0708	-4.4440	-4.6912	96.8335	45.8300	175	-8	-110	100561	0.64 
940.820	0.0674	-0.0737	0.9829	-3.9673	-38.1470	-7.0190	-5.0977	-8.4430	97.2290	45.8100	162	-8	-116	100561	0.64 
940.945	0.1382	-0.0850	0.9683	-8.2397	-52.1240	-1.8311	-5.9711	-13.2001	97.8662	45.8300	146	-7	-133	100561	0.64 
941.026	0.2544	-0.0815	0.9243	-10.3149	-62.8662	-7.9346	-6.8610	-18.9624	98.0310	45.8300	133	-4	-146	100561	0.64 
941.136	0.4258	-0.1196	0.9307	-13.1836	-69.2749	11.5356	-8.3716	-25.6091	98.9539	45.8300	109	-2	-161	100560	0.64 
941.261	0.5762	-0.1567	0.8491	-11.7188	-66.8945	17.0288	-11.1731	-32.1350	102.0081	45.8300	84	0	-170	100561	0.64 
941.339	0.7334	-0.2095	0.7314	-10.5591	-55.2368	10.3760	-14.3756	-37.9852	105.3534	45.8200	59	1	-177	100561	0.64 
941.479	0.8057	-0.2588	0.7280	-10.0708	-49.4385	6.0425	-17.4792	-42.8906	108.3417	45.8200	39	6	-186	100560	0.64 
941.542	0.8545	-0.2476	0.4976	-9.7046	-40.5273	9.0332	-20.6598	-47.1423	111.2970	45.8100	20	9	-191	100560	0.64 
941.683	1.0640	-0.3223	0.4604	-7.1411	-22.2168	-17.8833	-23.4229	-50.5481	113.6371	45.8200	8	13	-190	100560	0.64 
941.793	0.8579	-0.2280	0.5054	-4.1504	-18.5547	-11.4136	-24.2853	-52.7124	113.9227	45.8100	-2	15	-188	100560	0.64 
941.887	0.7388	-0.1377	0.5571	-4.2114	-12.0239	-11.9019	-24.7302	-54.2560	113.8788	45.8000	-12	20	-189	100561	0.64 
941.997	0.8340	-0.2607	0.4580	-2.9297	-10.0708	-1.2817	-25.4279	-55.8875	114.2633	45.8100	-16	17	-188	100560	0.64 
942.105	0.8408	-0.2271	0.4697	-0.6714	-6.8970	-5.5542	-24.8236	-56.8488	113.5107	45.8000	-20	18	-188	100560	0.64 
942.199	0.8677	-0.1753	0.4365	1.7700	-4.8218	-3.6011	-24.1974	-57.4805	112.8845	45.8000	-19	18	-185	100560	0.64 
942.340	0.8452	-0.2319	0.5864	0.1831	23.9868	6.4087	-23.9447	-56.3379	112.6208	45.8000	-24	21	-185	100560	0.64 
942.449	0.8394	-0.2046	0.5415	0.1831	-1.2207	-4.6997	-23.4119	-55.6732	112.0770	45.8000	-14	18	-188	100561	0.64 
942.543	0.8296	-0.2261	0.5195	0.4272	4.4556	-2.0142	-23.1482	-55.8215	111.7969	45.8000	-17	17	-191	100561	0.64 
942.699	0.8433	-0.2031	0.5273	-0.4883	-3.3569	-2.4414	-22.6373	-55.7666	111.2860	45.8100	-18	16	-188	100561	0.64 
942.793	0.8457	-0.1992	0.5137	-1.0376	2.9907	-0.9766	-22.3737	-55.9808	110.8905	45.8100	-16	16	-191	100561	0.64 
942.871	0.8271	-0.2007	0.5283	-0.6104	-0.0610	1.2207	-22.0880	-55.8765	110.5389	45.8100	-11	17	-189	100561	0.64 
942.996	0.8296	-0.2183	0.5356	-3.1738	-3.3569	4.6997	-22.7087	-55.9314	111.1377	45.7900	-15	18	-187	100561	0.64 
943.121	0.8037	-0.1899	0.5093	-0.8545	-5.1270	-2.0142	-23.3350	-56.3159	111.6815	45.8100	-20	18	-189	100561	0.64 
943.184	0.8779	-0.2070	0.5078	-0.4883	-8.8501	3.3569	-23.8074	-57.0355	112.1924	45.8200	-19	18	-187	100561	0.64 
943.293	0.8091	-0.2124	0.4478	2.8687	-16.9678	11.9019	-26.0376	-58.1342	114.9335	45.8100	-23	18	-187	100561	0.64 
943.403	0.9761	-0.2246	0.3892	3.9673	7.3242	6.4697	-29.0753	-58.5571	118.7073	45.8100	-27	19	-186	100560	0.64 
943.527	0.9204	-0.2168	0.4805	7.6904	23.4375	2.9907	-27.6086	-56.9916	117.6196	45.8000	-25	18	-189	100560	0.64 
943.605	0.8652	-0.2549	0.5015	8.5449	37.4146	5.3711	-25.2905	-54.2175	115.8124	45.8200	-15	14	-186	100560	0.64 
943.731	0.8174	-0.2227	0.6953	9.1553	49.7437	0.9155	-22.2253	-50.0812	113.1207	45.8100	0	12	-191	100560	0.64 
943.840	0.6196	-0.1860	0.7192	7.4463	49.6216	5.3711	-18.9514	-45.2307	109.9731	45.8300	20	6	-188	100561	0.64 
943.918	0.5342	-0.2217	0.7051	13.0005	54.0161	0.9766	-15.9796	-39.8639	107.5671	45.8200	40	3	-184	100561	0.64 
944.137	0.5547	-0.1802	0.8232	14.8315	60.9741	-10.1318	-12.6672	-34.3048	104.6613	45.8100	66	1	-177	100561	0.64 
944.200	0.4790	-0.1021	0.8687	15.4419	59.8145	-13.0005	-9.6021	-28.6908	101.8433	45.8100	84	-1	-171	100561	0.64 
944.293	0.3999	-0.0918	0.9248	15.3198	63.0493	-17.5171	-6.9873	-22.8625	99.4208	45.8000	104	-7	-160	100561	0.64 
944.387	0.2813	-0.0601	1.0078	14.7705	67.8101	-12.3291	-4.7021	-16.4355	97.2290	45.8000	126	-8	-146	100561	0.64 
944.496	0.1274	-0.0322	1.0283	11.5356	61.8286	-10.3760	-3.0157	-9.8328	95.7678	45.8100	149	-9	-128	100561	0.64 
944.575	-0.0107	0.0200	1.0103	8.1177	58.0444	-3.0518	-1.8292	-3.7848	94.7845	45.8100	167	-9	-112	100561	0.64 
944.746	-0.0762	0.0093	1.0396	2.3193	43.0908	3.4180	-1.2689	1.6699	94.7955	45.7900	181	-11	-95	100560	0.64 
944.824	-0.1611	0.0054	1.0054	5.1880	35.2783	-6.8970	-0.8130	5.5756	94.3066	45.8000	195	-10	-84	100560	0.64 
944.934	-0.2529	0.0083	1.0156	2.9907	27.3438	-5.2490	-0.4120	9.0637	93.4991	45.8200	202	-7	-72	100560	0.64 
945.028	-0.2515	0.0181	1.0122	-0.3662	11.9629	0.3052	-0.2637	11.2994	93.2849	45.8200	209	-9	-65	100560	0.64 
945.137	-0.2397	0.0430	1.0044	0.7324	7.6904	-0.7324	-0.1813	12.2827	93.3728	45.8200	209	-10	-60	100560	0.64 
945.215	-0.2598	0.0151	1.0044	-1.4648	3.2349	-0.2441	-0.0714	12.8979	93.2629	45.8300	209	-7	-58	100561	0.64 
945.340	-0.2788	0.0049	1.0161	-2.1362	-0.0610	-1.2207	-0.2747	13.1781	93.1256	45.8000	215	-7	-58	100561	0.64 
945.403	-0.2378	-0.0005	1.0005	-1.7090	-3.0518	0.0610	-0.4340	12.9913	93.1366	45.8300	211	-10	-53	100561	0.64 
945.543	-0.2310	0.0093	1.0034	-1.3428	-1.8921	0.9155	-0.5054	12.7112	93.1805	45.8200	210	-10	-55	100560	0.64 
945.621	-0.2378	0.0068	1.0103	-1.3428	-3.3569	0.5493	-0.5713	12.5024	93.1860	45.8400	212	-8	-56	100560	0.64 
945.715	-0.2236	0.0020	1.0088	-1.0986	-3.8452	1.4648	-0.6262	12.2058	93.2684	45.8100	212	-8	-56	100561	0.64 
945.794	-0.2358	0.0146	1.0112	-2.2583	-8.4229	2.3804	-0.6482	11.6675	93.4937	45.8300	210	-8	-59	100561	0.64 
945.949	-0.2593	0.0005	1.0220	-2.8687	-13.1226	1.4648	-0.8130	10.7007	93.6859	45.8300	209	-9	-63	100561	0.64 
946.043	-0.1943	-0.0190	1.0044	-4.0894	-21.2402	1.9531	-1.0986	9.0363	93.9276	45.8200	203	-10	-64	100560	0.64 
946.122	-0.1470	-0.0161	1.0225	-5.0049	-29.2969	1.8311	-1.4722	6.6742	94.1309	45.8400	202	-8	-72	100560	0.64 
946.231	-0.1177	-0.0156	1.0283	-5.9814	-39.8560	3.0518	-1.9226	3.3179	94.3671	45.8300	193	-9	-83	100560	0.64 
946.356	0.0015	-0.0317	1.0059	-5.6763	-49.6826	4.3335	-2.4225	-1.0272	94.7955	45.8500	185	-5	-97	100560	0.64 
946.434	0.0933	-0.0454	1.0386	-6.2866	-58.2886	1.1597	-3.1201	-6.2897	95.3174	45.8400	172	-4	-113	100560	0.64 
946.543	0.2031	-0.0693	1.0728	-10.8643	-71.7163	-3.1738	-4.1418	-12.4585	95.7294	45.8400	156	-6	-131	100560	0.64 
946.668	0.3340	-0.0674	0.9575	-12.5732	-73.5474	10.6812	-5.5591	-20.1874	97.0587	45.8400	127	-4	-150	100560	0.64 
946.762	0.4448	-0.1230	0.9019	-16.9678	-70.6787	18.1274	-7.9321	-26.9934	99.3713	45.8300	104	0	-165	100560	0.64 
946.857	0.5703	-0.1650	0.7471	-17.0898	-69.2749	20.5078	-11.3379	-33.6127	102.6617	45.8300	76	0	-178	100560	0.64 
946.980	0.7222	-0.2861	0.6763	-14.3433	-53.2837	10.4980	-15.3094	-39.2926	106.5839	45.8300	55	3	-184	100561	0.64 
947.059	0.7046	-0.2153	0.6709	-9.0332	-52.1240	2.1973	-18.1934	-43.9069	108.8525	45.8400	36	5	-188	100560	0.64 
947.183	0.8926	-0.2578	0.5068	-6.1035	-38.2690	-4.2114	-20.5664	-48.4167	111.0388	45.8500	18	14	-187	100561	0.64 
947.293	0.9907	-0.2622	0.5513	-2.3804	-16.7847	-15.3809	-21.2366	-51.0535	111.1761	45.8300	2	14	-192	100561	0.64 
947.402	0.8374	-0.2144	0.5596	-2.1973	-15.4419	-10.1318	-21.5387	-52.6520	111.0278	45.8500	-3	15	-189	100561	0.64 
947.481	0.8164	-0.2007	0.5239	-2.3193	-17.5171	-0.1831	-22.3407	-54.1571	111.6266	45.8400	-8	15	-189	100562	0.64 
947.605	0.8525	-0.2559	0.5063	-2.8076	-10.1929	4.8218	-23.3899	-55.3766	112.5934	45.8200	-14	15	-190	100562	0.64 
947.715	0.8584	-0.2383	0.5337	-1.2207	-2.5635	-1.0986	-23.5382	-56.0028	112.7032	45.8300	-16	17	-191	100562	0.64 
947.809	0.8452	-0.1724	0.4761	0.6714	-2.5024	1.1597	-23.0768	-56.5961	112.2089	45.8300	-16	17	-189	100562	0.64 
947.933	0.8145	-0.2310	0.5752	0.6714	16.1133	-1.8921	-22.7692	-55.9424	111.8958	45.8300	-16	16	-188	100562	0.64 
948.043	0.8354	-0.1953	0.5317	-1.0986	-4.2725	-3.6621	-21.9946	-55.6512	111.0114	45.8100	-13	14	-188	100562	0.64 
948.183	0.8408	-0.2026	0.5190	-0.8545	-0.9766	0.0000	-21.8243	-56.0193	110.7697	45.8100	-12	14	-188	100562	0.64 
948.231	0.8452	-0.1948	0.5254	-0.9766	-0.5493	-0.2441	-21.9452	-56.1127	110.8466	45.8000	-14	17	-186	100563	0.64 
948.356	0.8452	-0.1982	0.5161	-0.7935	0.7935	2.6855	-22.0715	-56.0797	110.9344	45.8100	-18	15	-187	100562	0.64 
948.480	0.8232	-0.1997	0.5259	-0.4883	0.7935	0.4272	-22.1484	-55.8875	111.0278	45.8200	-16	16	-188	100563	0.64 
948.559	0.8350	-0.1992	0.5220	0.4883	-4.3945	-0.3052	-22.1539	-55.9039	111.0663	45.8100	-16	14	-189	100562	0.64 
948.699	0.8291	-0.2065	0.5513	0.0610	-0.6714	-1.4038	-22.1100	-55.9534	111.0938	45.7900	-15	15	-188	100562	0.64 
948.808	0.8613	-0.1997	0.4932	-2.7466	-9.2163	6.2866	-22.9834	-56.3763	111.9672	45.7900	-15	16	-188	100562	0.64 
948.902	0.8179	-0.2378	0.5049	-2.0752	-6.5308	7.5684	-24.2633	-57.0300	113.2251	45.8000	-18	16	-191	100562	0.64 
949.043	0.9824	-0.2661	0.3984	1.3428	-23.2544	17.3340	-26.5704	-57.9199	116.0815	45.7900	-21	17	-188	100562	0.64 
949.137	0.8818	-0.2827	0.4316	3.1738	9.6436	-0.9766	-29.3390	-58.0353	119.5367	45.7800	-26	18	-187	100562	0.64 
949.215	0.9053	-0.2568	0.4194	5.3101	20.6909	8.4839	-28.8611	-56.7554	119.3774	45.7800	-22	19	-189	100562	0.64 
949.355	0.8506	-0.2861	0.4932	9.5825	30.4565	-1.7700	-26.8011	-54.1626	117.6746	45.7700	-12	15	-192	100562	0.64 
949.481	0.8188	-0.2300	0.6831	8.3008	29.9072	-6.3477	-23.2196	-51.5149	114.4006	45.8000	-2	13	-191	100561	0.64 
949.527	0.7119	-0.1748	0.6270	2.6245	31.0059	9.8877	-20.4565	-48.8232	111.7474	45.7800	8	10	-189	100561	0.64 
949.652	0.7773	-0.2075	0.6138	9.3994	43.8843	-11.5967	-18.1824	-45.2747	109.5007	45.7800	21	7	-189	100561	0.64 
949.762	0.7178	-0.2046	0.8120	9.1553	51.0254	-3.7842	-16.0016	-41.0779	107.4188	45.7800	35	6	-187	100560	0.64 
949.871	0.6484	-0.1763	0.8252	9.4604	58.7158	1.8921	-13.5461	-35.9418	105.0293	45.7700	55	2	-182	100561	0.64 
949.965	0.4780	-0.1787	0.8809	10.5591	62.0117	-6.5308	-10.9204	-29.6521	102.3761	45.7800	78	-1	-172	100560	0.64 
950.090	0.4106	-0.1221	0.9102	11.5967	74.5239	-12.5122	-8.6298	-23.0933	99.8987	45.7700	104	-3	-160	100560	0.64 
950.277	0.2290	-0.1123	1.0225	9.9487	64.2090	-9.2773	-6.8445	-16.0181	97.7289	45.7600	129	-3	-142	100560	0.64 
950.309	0.1094	-0.0884	0.9849	5.1270	58.7158	-10.8032	-5.7294	-10.1459	96.3885	45.7700	148	-4	-128	100560	0.64 
950.434	-0.0215	-0.0664	1.0356	3.1128	56.1523	-8.7891	-5.2350	-4.1528	94.7516	45.7400	171	-4	-114	100560	0.64 
950.496	-0.0649	-0.0449	1.0171	5.0049	42.6636	-4.4556	-4.6362	0.9283	93.5486	45.7400	185	-3	-95	100560	0.64 
950.652	-0.1255	-0.0518	0.9946	2.7466	32.4097	-2.0752	-4.2133	4.9384	92.9608	45.7600	193	-2	-86	100560	0.64 
950.730	-0.2046	-0.0361	0.9927	2.2583	26.7944	-0.7324	-3.9221	8.1244	92.4609	45.7500	202	-3	-74	100560	0.64 
950.824	-0.2988	-0.0537	1.0176	2.0142	20.5688	0.0000	-3.7189	10.8380	92.1423	45.7200	209	-2	-67	100559	0.64 
950.918	-0.2720	-0.0420	1.0078	-1.1597	20.2637	-0.6104	-3.7244	13.0188	91.7468	45.7500	211	-3	-57	100560	0.64 
951.027	-0.2876	-0.0386	0.9712	0.4883	9.3384	0.5493	-3.7024	14.6613	91.5326	45.7500	216	0	-50	100560	0.64 
951.137	-0.2983	-0.0464	1.0005	-0.5493	4.6387	0.0610	-3.6255	15.3809	91.5161	45.7600	218	-1	-47	100560	0.64 
951.231	-0.2959	-0.0542	0.9961	-0.9766	0.6104	0.3052	-3.6365	15.6555	91.5601	45.7500	219	-1	-46	100560	0.64 
951.325	-0.2979	-0.0537	0.9819	-1.1597	-0.2441	1.0376	-3.6969	15.7324	91.5710	45.7600	218	0	-43	100560	0.64 
951.449	-0.2900	-0.0474	0.9941	-1.7700	-0.6714	1.0986	-3.7628	15.7489	91.6205	45.7700	219	-1	-44	100560	0.64 
951.528	-0.3022	-0.0537	0.9990	-0.9155	-3.6621	0.3662	-3.8287	15.5402	91.7358	45.7800	221	-2	-45	100560	0.64 
951.668	-0.2847	-0.0547	0.9980	-0.9766	-2.5635	-0.5493	-3.9056	15.2710	91.7413	45.7700	219	-2	-47	100560	0.64 
951.762	-0.2827	-0.0601	0.9917	-1.3428	-1.9531	0.4883	-3.9771	15.0732	91.7578	45.7900	218	0	-49	100560	0.64 
951.840	-0.2715	-0.0547	0.9956	-0.7324	-1.7700	0.4883	-4.0210	14.9304	91.7468	45.7700	220	0	-51	100561	0.64 
951.965	-0.2744	-0.0610	0.9966	-0.6104	-2.0142	0.3662	-4.0375	14.7601	91.8677	45.7800	215	-1	-48	100560	0.64 
952.043	-0.2744	-0.0610	0.9941	-0.4272	-2.0142	0.8545	-4.0265	14.6008	91.9336	45.7900	220	0	-50	100561	0.64 
952.153	-0.2646	-0.0532	0.9878	-0.1831	-2.2583	1.2207	-3.9935	14.4250	91.9940	45.8000	218	0	-52	100561	0.64 
952.262	-0.2593	-0.0640	1.0010	-0.5493	-1.5869	0.9155	-3.9935	14.2932	92.0764	45.7900	216	-2	-52	100560	0.64 
952.387	-0.2607	-0.0605	0.9917	0.0610	-1.2817	0.4883	-3.9771	14.2218	92.0764	45.8100	216	-2	-53	100561	0.64 
952.481	-0.2646	-0.0557	0.9946	-0.0610	-1.2817	0.8545	-3.9276	14.1394	92.1368	45.8100	216	-1	-53	100561	0.64 
952.575	-0.2583	-0.0562	0.9990	0.0000	-0.5493	1.8311	-3.8562	14.0515	92.2302	45.8000	216	-1	-52	100561	0.64 
952.671	-0.2603	-0.0576	0.9976	0.3052	-1.7700	0.1221	-3.7958	13.9856	92.3016	45.8000	215	-3	-54	100561	0.64 
952.781	-0.2603	-0.0552	0.9990	0.1221	-1.4038	0.7935	-3.7299	13.8757	92.2742	45.8000	217	-1	-55	100561	0.64 
952.875	-0.2441	-0.0552	0.9922	0.4272	-3.0518	2.0752	-3.6200	13.6780	92.3566	45.8100	216	0	-54	100561	0.64 
952.996	-0.2339	-0.0439	1.0015	0.0000	-1.4038	0.3052	-3.5321	13.4473	92.3950	45.8000	213	0	-55	100561	0.64