StartTime: 2017-07-07 11:46:33.881
Time(s)	ax(g)	ay(g)	az(g)	wx(deg/s)	wy(deg/s)	wz(deg/s)	AngleX(deg)	AngleY(deg)	AngleZ(deg)	T(°)	hx	hy	hz	Pressure(Pa)	Altitude(m) 
24.679	-0.2446	0.0928	0.9517	-1.0986	2.1973	0.8545	5.8832	14.6448	155.5664	47.4000	116	-288	118	100764	0.47 
24.723	-0.2563	0.0889	0.9551	-0.6104	1.5869	0.0000	5.8008	14.8425	155.6543	47.4100	116	-286	116	100764	0.47 
24.840	-0.2534	0.0947	0.9473	0.0000	2.7466	0.3052	5.7678	15.0403	155.6653	47.4100	117	-290	119	100763	0.47 
24.911	-0.2651	0.0850	0.9502	0.0000	1.9531	0.3662	5.7898	15.2985	155.7532	47.4100	117	-290	121	100764	0.47 
25.096	-0.2725	0.0854	0.9604	0.1831	2.5024	-2.5024	5.7349	15.4962	155.5774	47.4300	118	-288	122	100764	0.47 
25.148	-0.2759	0.0815	0.9570	0.1221	1.5259	-3.6011	5.6250	15.6720	155.2863	47.4200	118	-291	120	100763	0.47 
25.243	-0.2744	0.0908	0.9561	0.5493	0.0000	-3.7231	5.5371	15.7928	154.8798	47.4200	118	-289	119	100764	0.47 
25.316	-0.2646	0.0913	0.9478	0.5493	-0.1831	-1.7090	5.4987	15.8148	154.5721	47.4500	123	-286	121	100763	0.47 
25.453	-0.2759	0.1064	0.9521	1.3428	0.4883	-1.1597	5.5426	15.8203	154.4019	47.4400	122	-290	122	100763	0.47 
25.524	-0.2749	0.1011	0.9468	1.0986	0.3662	-1.7700	5.6360	15.8862	154.2975	47.4500	123	-287	123	100763	0.47 
25.681	-0.2646	0.0801	0.9565	0.3052	0.0610	-0.6104	5.7074	15.8368	154.2700	47.4400	118	-288	124	100763	0.47 
25.732	-0.2710	0.0581	0.9556	0.1221	-0.0610	-1.9531	5.6470	15.8807	154.1986	47.4500	119	-286	121	100763	0.47 
25.904	-0.2778	0.0698	0.9619	1.0376	1.7700	-6.5918	5.4877	16.0620	153.7537	47.4600	123	-289	124	100763	0.47 
25.968	-0.2744	0.0693	0.9902	2.1973	-0.0610	-3.2959	5.4108	16.2268	153.2318	47.4500	126	-286	121	100763	0.47 
26.060	-0.2754	0.1021	0.9541	5.0659	-3.4180	-1.0376	5.6964	16.0016	153.0011	47.4600	124	-289	123	100763	0.47 
26.147	-0.2495	0.2026	0.8774	-0.1221	-8.7891	21.4233	6.3721	15.5347	153.7811	47.4500	122	-288	118	100764	0.47 
26.285	-0.2314	0.0884	1.0088	2.1973	-6.7139	15.2588	6.3171	14.1724	155.9344	47.4600	113	-294	118	100764	0.47 
26.355	-0.1694	0.0981	1.0083	4.6387	5.1880	-13.3667	6.4435	14.0295	156.1267	47.4500	106	-299	115	100764	0.47 
26.514	-0.0039	0.1279	0.7207	-12.1460	6.4087	9.8877	6.8060	13.5077	156.2421	47.4600	107	-296	116	100764	0.47 
26.564	-0.1523	0.1704	0.8955	-13.9771	-5.6152	-20.0806	5.0427	14.5129	155.6158	47.4500	101	-294	116	100764	0.47 
26.733	-0.3276	-0.0171	0.6104	-5.2490	24.4751	-41.3818	2.7191	14.1504	152.5781	47.4500	100	-286	115	100764	0.47 
26.779	-0.2622	0.6118	1.7007	21.9727	-32.1045	12.6343	4.3176	15.3973	150.3424	47.4400	104	-282	125	100765	0.47 
26.918	0.1650	-0.5171	0.4946	-21.9727	36.9263	-15.9302	1.6040	14.8425	151.8365	47.4400	97	-282	124	100765	0.47 
26.981	-0.1709	0.1631	0.7515	1.4648	-12.6343	33.0200	2.7026	18.8141	152.8967	47.4300	103	-272	134	100765	0.47 
27.142	0.1152	-0.0044	0.3291	7.8735	-2.8687	-16.4795	3.8397	13.7714	156.7035	47.4300	89	-275	132	100765	0.47 
27.205	-1.7163	0.3501	3.0679	-49.0723	-12.6953	-31.3721	1.8951	19.2700	156.0278	47.4200	87	-268	145	100766	0.47 
27.341	0.1997	0.7974	0.4429	22.6440	45.7764	21.8506	3.5541	12.6178	156.9122	47.4000	83	-268	135	100766	0.47 
27.394	-0.1411	-0.1577	0.5024	23.1934	-33.9355	-64.0869	1.4557	18.3307	152.1552	47.3900	97	-258	148	100767	0.47 
27.540	-0.3887	-0.0146	0.6548	-30.7007	10.4980	-64.7583	1.9611	15.5237	146.6345	47.3900	108	-247	146	100767	0.46 
27.603	-1.5474	-0.0908	2.6553	32.3486	-1.5869	5.4321	3.0817	17.5726	143.9594	47.3600	115	-233	153	100768	0.46 
27.741	-0.4849	-0.0439	1.0977	0.4883	19.5923	25.5127	3.5651	15.6061	144.2505	47.3300	112	-227	153	100768	0.46 
27.811	0.0386	0.1621	0.1763	7.6904	-2.0142	51.1475	6.1194	14.8480	147.7441	47.3400	114	-228	155	100768	0.46 
27.945	-0.0459	0.2080	0.2769	1.9531	-52.4292	39.1235	9.5691	13.9911	155.2698	47.3200	111	-241	163	100768	0.46 
28.018	-2.1636	0.5068	3.2261	-87.1582	101.8677	51.5137	7.3993	19.0503	159.3457	47.3300	111	-249	165	100768	0.46 
28.135	0.6030	0.2637	0.1968	13.3057	30.4565	20.3247	3.6255	12.3486	160.6641	47.3200	102	-249	158	100769	0.46 
28.227	-0.3931	-0.0142	1.1919	1.5259	-66.5894	-16.6626	3.7573	18.4680	158.9008	47.3100	113	-253	164	100769	0.46 
28.358	-0.0845	-0.1694	0.5464	-15.0757	9.6436	-59.0210	1.6864	13.0518	154.5612	47.3000	114	-248	158	100769	0.46 
28.434	-0.7695	-0.0640	0.7446	42.2974	51.1475	-39.8560	2.1423	13.8702	149.2218	47.3000	117	-236	158	100770	0.46 
28.552	0.3174	0.5093	0.6377	-24.1699	-95.5200	36.1328	6.1469	13.3044	151.7212	47.2800	119	-232	171	100770	0.46 
28.638	-0.7666	0.0044	1.2319	0.4883	88.1348	54.8706	3.3289	18.1329	154.7095	47.2700	116	-236	167	100770	0.46 
28.748	0.0337	-0.0376	0.4395	17.2119	27.8320	60.7300	7.1960	14.0131	162.0538	47.2800	107	-247	175	100770	0.46 
28.937	0.0615	-0.1519	0.0459	-30.8228	-14.7095	-31.0059	8.3716	11.6235	168.6566	47.2500	93	-262	178	100770	0.46 
28.984	-0.2944	-0.8062	1.0005	-13.0005	-175.8423	-10.3760	4.2902	13.8977	166.1462	47.2700	93	-259	186	100771	0.46 
29.128	-0.4707	-0.0332	0.4448	-19.4092	148.7427	-56.4575	9.8822	10.1239	165.4816	47.2400	91	-256	168	100771	0.46 
29.185	0.2480	0.4004	0.3501	-21.2402	-71.7773	-23.9258	7.5531	9.8602	159.9664	47.2600	104	-248	175	100772	0.46 
29.351	-0.0928	0.1006	0.6167	2.3804	-2.6245	-27.5879	4.0485	8.7231	154.9841	47.2300	106	-237	166	100772	0.46 
29.423	-0.9424	0.3828	2.1904	52.0630	-45.3491	1.2207	7.6190	12.1399	151.7047	47.2300	114	-226	173	100773	0.46 
29.537	0.0444	-0.4331	0.3364	-27.2217	26.8555	7.5684	5.1416	8.4650	151.4850	47.2100	113	-224	166	100773	0.46 
29.593	-0.3442	0.3237	0.4175	-40.1611	95.2759	81.2378	5.3009	17.2211	156.9177	47.2100	115	-228	171	100774	0.46 
29.758	-0.5698	0.2783	1.3550	23.2544	27.9541	98.2666	6.8719	17.7594	164.9817	47.2200	104	-245	180	100774	0.46 
29.815	-2.2456	0.6870	3.3374	-47.7905	61.1572	29.1138	3.5101	20.2313	163.3008	47.2000	98	-253	183	100775	0.46 
29.961	0.4404	0.4346	0.1729	49.2554	11.9629	-20.8130	3.2574	10.6293	163.8116	47.1900	93	-253	171	100775	0.46 
30.028	-0.4966	-0.1392	0.9619	11.0474	-59.5703	-87.0972	4.8230	15.1007	159.2413	47.1800	102	-250	179	100776	0.46 
30.157	-0.2026	-0.2148	0.3921	14.0991	4.1504	-74.7070	5.4767	7.8223	150.7104	47.2100	113	-236	168	100776	0.46 
30.223	-1.5532	-0.0547	3.0039	84.0454	-5.9204	20.7520	9.1296	11.5466	143.8330	47.1800	120	-219	177	100776	0.46 
30.369	0.0615	-0.1060	0.1787	-18.0054	62.6831	-8.3008	10.6238	5.3888	143.5199	47.1700	114	-218	167	100777	0.46 
30.427	-0.1279	0.0435	0.2344	12.5732	-67.0776	45.4102	10.2777	11.0577	147.3541	47.1600	118	-218	179	100777	0.46 
30.551	-0.3330	-0.0708	0.5229	-3.0518	27.7710	41.9312	12.3212	9.3988	150.9906	47.1600	118	-227	178	100778	0.46 
30.619	-2.8384	1.2041	3.5317	-88.0127	65.4907	-25.7568	8.2013	14.9194	149.5569	47.1600	115	-226	187	100778	0.46 
30.779	0.2471	0.8193	0.1406	62.3169	56.3965	-32.1655	8.5748	8.0475	148.9746	47.1200	115	-226	173	100779	0.45 
30.836	-0.0933	-0.1465	0.4570	15.3198	-59.2041	-46.8750	9.0802	15.2106	144.4537	47.1500	121	-219	188	100780	0.45 
30.970	-0.2817	-0.2314	0.4531	-14.6484	-18.1274	-30.1514	9.9152	12.9364	142.2565	47.1400	125	-206	186	100780	0.45 
31.042	-1.6431	-0.2207	2.6753	60.9741	16.1743	23.4985	10.1514	16.3477	136.1316	47.1300	128	-196	193	100780	0.45 
31.166	0.4478	-0.0269	0.3276	-8.8501	18.4326	-3.9063	12.1289	9.6790	136.0602	47.1300	123	-189	186	100780	0.45 
31.243	-0.2290	0.0942	0.4995	-7.6294	-30.7007	78.7354	11.5686	15.2820	141.7346	47.1100	127	-193	193	100780	0.45 
31.399	-0.1318	-0.0317	0.2749	24.3530	-9.7656	19.7754	12.1619	11.8323	146.9696	47.1100	121	-204	194	100780	0.45 
31.469	-1.2593	0.3701	0.8130	-29.1138	100.2197	-28.8696	12.8979	14.8975	146.7554	47.1000	123	-206	197	100780	0.45 
31.576	0.2129	0.1289	0.8394	0.4883	-52.6123	-12.3901	8.9539	11.6785	143.7561	47.1000	121	-203	201	100781	0.45 
31.659	-0.5249	-0.2842	1.0161	-2.4414	81.4209	3.7842	10.3986	15.2600	146.4807	47.1000	131	-204	198	100782	0.45 
31.815	0.0913	0.4072	0.3047	-12.0850	-25.9399	-46.7529	9.2560	12.7551	141.4764	47.0700	132	-196	204	100782	0.45 
31.876	-0.4199	-0.2095	0.3594	27.6489	1.8921	-22.2778	8.6792	15.2325	140.1086	47.1000	144	-188	204	100783	0.45 
32.009	-0.0474	0.4556	1.3789	-5.7983	-55.6030	56.1523	11.6290	14.7107	140.2954	47.0700	150	-183	214	100783	0.45 
32.075	-0.3076	-0.0356	0.4976	-6.9580	49.3774	-0.2441	8.5638	14.2712	141.0315	47.0800	152	-195	201	100784	0.45 
32.203	0.0293	-0.0176	0.3091	31.0059	-2.6245	-22.4609	9.3109	14.3756	140.7733	47.0700	154	-204	209	100785	0.45 
32.298	-0.2676	-0.1758	1.0435	18.0664	0.3662	-11.4136	11.0303	16.0236	139.4550	47.0800	166	-201	216	100785	0.45 
32.415	-1.4351	-0.3794	2.0396	-36.3770	-69.2139	-53.7720	6.0205	20.9235	132.8741	47.0800	171	-192	226	100786	0.45 
32.585	0.0347	0.1318	0.2295	39.4287	-6.7139	-130.0659	7.2235	13.3813	127.6227	47.0500	177	-185	208	100786	0.45 
32.635	-0.3032	0.3350	0.8472	53.6499	-9.4604	-119.5068	8.0914	17.8528	113.9227	47.0600	182	-154	204	100786	0.45 
32.808	-0.0933	-0.1494	1.0137	38.5742	-57.3120	-136.4136	8.1903	16.0840	102.5079	47.0400	174	-115	193	100786	0.45 
32.853	-1.7158	-0.0547	1.4995	116.3940	13.5498	-46.4478	9.8438	18.1769	92.4994	47.0300	161	-81	178	100787	0.45 
32.998	-0.2573	-0.0205	0.6157	-20.6299	0.6104	-137.8174	10.3436	17.1112	83.2983	47.0200	142	-59	158	100788	0.45 
33.066	-0.1777	-0.0947	0.6304	21.3013	-5.2490	-65.7959	8.3990	17.2540	75.4761	47.0200	116	-35	146	100788	0.45 
33.205	-0.1396	-0.0586	1.0181	47.7295	-28.8086	-103.6987	9.1516	17.3364	68.0713	47.0300	85	-25	135	100789	0.45 
33.280	-0.3311	-0.0122	1.2813	22.0947	29.5410	-29.4189	10.3656	17.2980	63.3472	47.0100	59	-10	117	100789	0.45 
33.410	-0.6626	-0.1914	1.0732	12.8174	0.8545	-36.0107	9.4977	17.8033	61.5784	46.9900	50	-6	112	100789	0.45 
33.486	-0.4058	0.0713	0.7983	9.3384	20.9351	-72.8149	7.4762	18.1714	56.5192	47.0100	31	-4	106	100789	0.45 
33.625	-0.2817	0.0747	0.8198	55.7861	-11.1084	-126.5259	6.9214	19.6600	47.7026	47.0100	2	1	100	100789	0.45 
33.676	-0.2544	0.2656	0.8311	48.7671	-1.6479	-120.0562	7.3718	20.9509	38.4576	47.0000	-38	-1	88	100788	0.45 
33.815	-0.2832	0.1538	0.9907	23.9258	-22.2168	-57.5562	6.5039	22.1814	26.0980	46.9800	-71	-8	83	100788	0.45 
33.884	-0.4951	-0.1548	1.1841	12.5732	-7.8735	-92.5293	3.9716	20.8740	11.7609	46.9800	-96	-9	79	100789	0.45 
34.019	-0.1484	0.0059	0.3926	35.6445	-31.7383	-91.1255	5.2020	20.4895	-2.6477	46.9700	-122	-21	74	100789	0.45 
34.086	-0.8110	0.2300	1.4272	-9.8267	-3.6621	0.2441	4.2297	21.4893	-14.9744	46.9700	-140	-34	72	100789	0.45 
34.228	-0.1523	-0.0557	0.7329	-2.8076	22.1558	-47.6074	2.0764	18.8196	-20.3027	46.9700	-145	-35	74	100790	0.45 
34.288	-0.1499	-0.0313	0.8833	22.0947	-14.4043	24.4141	2.0435	19.2920	-26.6199	46.9600	-151	-34	78	100790	0.45 
34.433	-0.7822	0.0576	1.2319	-11.4136	-51.3306	-61.8896	3.0981	20.4675	-31.8054	46.9700	-150	-38	74	100790	0.45 
34.502	-0.5298	0.3013	1.3159	8.3008	49.1943	-4.2114	2.3346	19.1931	-36.2988	46.9600	-152	-37	74	100790	0.45 
34.624	-0.3799	-0.1826	1.0088	12.2070	-4.5776	-12.9395	2.4115	19.3634	-41.0394	46.9500	-153	-41	73	100790	0.45 
34.689	-0.0933	0.0449	0.6934	-5.0659	8.0566	1.4038	3.0322	18.0341	-45.9393	46.9600	-150	-44	74	100789	0.45 
34.815	-0.0752	0.1421	0.7139	-12.0850	0.7324	-38.2080	1.3513	17.4902	-51.7786	46.9500	-153	-48	74	100789	0.45 
34.876	-0.1079	-0.1611	0.4316	2.1362	5.1880	-54.0161	-0.5273	16.6113	-57.8870	46.9500	-155	-47	71	100789	0.45 
34.990	-1.2407	0.0352	2.4199	27.6489	-52.3071	49.6826	1.6974	19.5337	-64.3689	46.9400	-163	-53	72	100790	0.45 
35.081	0.0718	-0.0435	0.3711	0.4883	34.6069	-32.5317	1.5436	12.6398	-66.6815	46.9300	-174	-59	77	100790	0.45 
35.251	0.0220	0.1211	0.3320	-8.4839	-10.8032	50.1709	2.8674	15.3754	-68.5107	46.9200	-168	-61	72	100791	0.45 
35.320	-0.0518	-0.2197	0.7803	-2.0752	-11.6577	20.2637	3.8507	14.5349	-65.4401	46.9200	-164	-54	70	100791	0.44 
35.455	-1.7212	-0.1694	2.4224	-59.9365	-98.8159	20.2026	-1.0602	17.5891	-71.2463	46.9100	-156	-47	76	100792	0.44 
35.510	-0.0610	0.7197	0.1836	20.6909	141.0522	-57.3120	0.7416	8.7231	-72.9108	46.9200	-166	-43	84	100792	0.44 
35.660	0.0474	-0.0566	0.5142	-5.7373	-42.9688	-33.9966	-1.4502	13.4692	-78.7665	46.9100	-160	-52	75	100793	0.44 
35.722	-0.1934	-0.0288	0.6768	0.9155	2.4414	17.2119	-1.7908	11.8048	-83.2214	46.9000	-168	-55	78	100793	0.44 
35.811	-1.2202	-0.3594	1.8403	40.1001	70.3125	-18.1274	-1.0822	13.3374	-84.9738	46.8800	-168	-58	79	100793	0.44 
35.901	0.0938	0.3037	0.7231	-12.4512	-59.1431	17.0898	3.1970	9.1901	-84.8145	46.8600	-173	-63	75	100794	0.44 
36.066	-0.5610	0.0596	0.5977	0.1221	77.5757	34.5459	0.1868	11.4697	-85.7318	46.8700	-176	-61	75	100794	0.44 
36.129	0.1738	-0.3257	0.7905	18.2495	-29.5410	18.9209	2.5598	10.0964	-81.9525	46.8500	-157	-55	68	100795	0.44 
36.269	-1.0669	-0.0605	1.9414	-53.8330	28.5034	-40.1611	1.9446	12.9639	-85.2209	46.8500	-158	-58	67	100795	0.44 
36.343	0.1982	-0.4805	0.6182	-7.5684	-40.2222	47.3022	-0.7361	10.5249	-85.1770	46.8500	-156	-49	69	100795	0.44 
36.428	-0.5767	0.0850	1.2251	-17.4561	35.0342	-23.1934	0.6207	13.9636	-86.1548	46.8600	-147	-46	66	100795	0.44 
36.524	-0.2168	0.2349	0.9146	4.7607	-14.2822	-6.1646	-0.2142	14.5734	-89.6155	46.8400	-145	-50	67	100795	0.44 
36.674	-0.2764	-0.3281	0.4639	15.0146	-13.7329	-61.9507	-0.6702	11.0468	-93.3289	46.8300	-149	-55	65	100796	0.44 
36.742	-0.4956	0.2578	1.7246	34.4238	-90.3931	24.7803	3.3618	12.1893	-95.2789	46.8200	-157	-62	59	100797	0.44 
36.841	-0.3345	-0.2617	0.4292	-35.3394	98.5718	-5.5542	2.0709	9.1681	-98.3441	46.7800	-169	-70	59	100797	0.44 
36.942	0.4038	0.0737	0.1865	-14.8315	-14.7095	52.5513	3.9771	11.0303	-92.8015	46.7900	-159	-65	61	100797	0.44 
37.080	-0.5083	-0.3701	1.2617	-12.3291	25.3906	22.0947	3.8397	14.0076	-89.0662	46.7900	-140	-59	61	100797	0.44 
37.145	-0.6948	-0.3613	1.5996	-40.8325	-139.0381	43.3350	-1.0602	15.9576	-94.5758	46.7700	-136	-49	62	100798	0.44 
37.262	-0.7437	0.5020	1.2070	-7.9346	137.6953	-17.7612	1.2085	12.6508	-94.4550	46.7500	-140	-51	65	100798	0.44 
37.349	0.2720	0.1191	0.2852	30.0903	-38.8184	-24.0479	0.5823	11.5741	-98.2123	46.7300	-138	-49	61	100798	0.44 
37.488	-0.3755	-0.0425	0.3530	42.2974	-30.7617	-44.2505	2.5598	9.8712	-103.9581	46.7100	-151	-60	61	100799	0.44 
37.557	-1.0996	0.2407	2.0913	55.1758	-74.6460	47.4243	7.8333	9.6625	-104.9304	46.7100	-163	-76	55	100800	0.44 
37.686	-0.2295	-0.0303	0.1030	-31.1279	109.3140	-15.1367	5.4987	5.0922	-106.8915	46.6900	-182	-83	61	100800	0.44 
37.765	0.3237	-0.2207	0.1313	-0.2441	-49.1943	36.1938	4.9878	8.5309	-101.6400	46.6900	-155	-73	57	100800	0.44 
37.894	-0.6826	0.1187	0.6040	-10.1929	54.2603	63.9648	4.3671	8.7067	-101.9696	46.6800	-151	-68	58	100800	0.44 
37.986	-0.5068	0.5527	1.5386	27.8320	-116.6992	-37.4756	0.9283	10.8105	-109.3304	46.6800	-144	-62	59	100800	0.44 
38.092	-0.6450	-0.5313	1.0576	-17.6392	93.3228	-38.0859	2.7466	7.6465	-106.3422	46.6500	-155	-66	68	100801	0.44 
38.273	0.0786	0.4629	0.0806	-1.7700	-33.7524	-33.9966	2.6477	7.0038	-111.9122	46.6500	-158	-70	64	100801	0.44 
38.355	-0.0942	-0.0220	0.0103	19.3481	-51.9409	-20.8130	2.2522	8.3606	-115.4443	46.6400	-168	-70	68	100801	0.44 
38.494	-1.3726	0.3423	2.4819	35.5225	-75.0122	58.5327	5.1526	10.9149	-115.3674	46.6100	-166	-82	66	100802	0.44 
38.553	-0.3296	0.0293	0.4829	-31.5552	131.7139	-42.5415	2.3566	4.7845	-117.4713	46.5900	-177	-89	66	100802	0.44 
38.667	0.1284	-0.1025	0.2837	-16.4185	-55.1758	73.9136	0.0494	8.6517	-113.0658	46.6000	-161	-77	66	100802	0.44 
38.724	-0.2095	-0.2485	1.1372	21.9727	-32.1655	24.9023	0.1428	7.3773	-107.9791	46.5800	-151	-64	65	100803	0.44 
38.887	-1.5659	0.5244	2.7334	-7.0190	-47.3633	-1.1597	-1.2305	10.2338	-113.3350	46.5800	-152	-66	63	100804	0.43 
38.948	0.0718	0.0459	0.4932	40.9546	76.9653	17.6392	-1.4832	4.4220	-112.0111	46.5700	-161	-60	76	100804	0.43 
39.104	-0.1660	0.0732	0.7837	-7.1411	18.9209	-33.0811	0.7745	9.9261	-113.6700	46.5700	-153	-67	66	100805	0.43 
39.177	0.2021	0.2368	0.3589	-13.5498	-22.0337	25.2075	-0.1703	8.9648	-114.1974	46.5500	-151	-67	66	100805	0.43 
39.315	-0.2856	-0.1987	0.1577	24.4751	11.3525	-97.4121	-1.6095	6.4655	-115.4608	46.5600	-154	-67	66	100805	0.43 
39.391	-0.2681	0.0220	1.5273	-6.7749	-116.0278	25.4517	3.5266	7.5806	-115.2301	46.5600	-160	-79	64	100805	0.43 
39.505	-0.6333	-0.0962	0.9033	-15.3198	113.8916	29.6021	0.8240	6.5588	-115.4718	46.5200	-166	-83	65	100805	0.43 
39.570	0.3320	-0.0562	0.1089	-8.3618	-25.5127	54.5654	1.8567	6.1633	-109.0997	46.5300	-151	-74	62	100805	0.43 
39.725	-0.3843	-0.0254	0.7549	2.5024	-45.8984	57.3120	2.1368	6.7126	-104.8315	46.5000	-142	-67	63	100805	0.43 
39.797	-1.0107	-0.0342	1.9688	4.2725	-125.0000	27.2827	1.0162	9.8547	-104.7052	46.4900	-137	-60	64	100806	0.43 
39.876	-0.1836	-0.0605	0.5439	9.3384	70.0073	-4.9438	2.1368	4.1583	-105.2490	46.4800	-143	-59	67	100807	0.43 
39.968	-0.1348	0.1265	0.6943	-26.1841	-34.7900	-8.9722	1.8127	6.9873	-107.7319	46.4800	-139	-60	65	100807	0.43 
40.124	-0.2837	-0.0010	0.5586	-24.1089	-10.9253	-8.1177	-0.7526	5.1526	-108.7042	46.4600	-145	-55	67	100807	0.43 
40.181	-1.1289	0.1631	2.5405	49.6826	-5.3711	3.5400	0.9943	8.7946	-108.9899	46.4700	-146	-53	70	100807	0.43 
40.331	0.3062	0.1284	0.4180	-22.4609	-1.2207	33.1421	2.2961	2.6532	-106.5674	46.4600	-153	-52	69	100808	0.43 
40.394	-0.1885	-0.0874	0.2734	-28.5645	10.4980	101.0132	0.8679	7.5641	-101.9916	46.4600	-144	-45	68	100808	0.43 
40.547	-0.2090	0.0283	0.5522	0.4272	62.4390	60.0586	-1.7139	8.9429	-92.9718	46.4600	-118	-36	69	100809	0.43 
40.701	-1.0073	-1.0112	1.6606	16.1743	-141.8457	24.3530	-8.2672	15.8643	-96.7291	46.4700	-91	-18	76	100809	0.43 
40.763	-0.8398	0.0874	0.8232	4.2114	126.8311	-30.0903	-0.4779	10.3217	-95.9491	46.4500	-107	-24	74	100809	0.43 
40.799	-0.0005	0.1899	0.3633	10.2539	35.7056	8.0566	2.6752	12.1783	-96.9598	46.4200	-97	-29	66	100810	0.43 
40.954	0.1274	-0.2480	0.8022	-17.0288	-35.9497	-88.1958	0.1044	11.6125	-100.5139	46.4000	-98	-28	66	100810	0.43 
41.007	-1.1494	1.0024	0.9282	51.1475	-38.0859	76.1108	1.9061	14.0790	-106.9519	46.4100	-113	-32	66	100811	0.43 
41.145	-0.5732	-0.4229	0.6860	10.4370	54.8706	-65.3076	-0.0769	11.3489	-108.6163	46.4100	-124	-35	62	100812	0.43 
41.231	-0.4800	0.2695	0.7310	-13.3057	12.2070	-16.6016	1.6919	11.7554	-111.2201	46.3900	-130	-41	62	100812	0.43 
41.349	-0.2217	-0.0762	0.8867	1.2817	-26.8555	-4.5776	-0.0989	11.6180	-111.1102	46.4100	-135	-41	65	100812	0.43 
41.520	-0.7827	-0.1226	1.1465	15.8691	7.8735	1.3428	1.5820	10.7391	-109.8523	46.4000	-141	-43	68	100812	0.43 
41.589	-0.3086	0.1182	0.8599	11.5967	-0.9155	-12.7563	2.5378	9.5526	-113.0109	46.3900	-148	-47	64	100813	0.43 
41.736	-0.6743	0.0708	1.0815	10.3760	22.3999	-24.2310	3.3344	11.1731	-114.5654	46.4100	-156	-51	65	100813	0.43 
41.797	-0.2153	0.0571	0.8140	2.5635	11.6577	-14.4043	3.6475	11.6125	-116.5210	46.3900	-161	-54	61	100813	0.43 
41.941	-0.3755	0.0752	0.8809	2.0752	2.6245	6.4087	3.4332	13.4528	-117.0044	46.4000	-163	-60	63	100813	0.43 
42.008	-0.4487	0.1060	0.9883	-2.6855	1.4648	5.1880	3.4497	14.9139	-116.8726	46.4100	-158	-58	60	100813	0.43 
42.111	-0.3257	0.0474	0.9004	-5.1880	0.3052	10.8032	3.4058	15.1392	-115.9991	46.3900	-155	-59	59	100813	0.43 
42.171	-0.3599	0.0278	0.9092	0.5493	1.4038	-5.2490	3.0981	15.6995	-115.7629	46.4000	-155	-53	62	100812	0.43 
42.347	-0.3740	0.0454	0.9233	1.8311	-0.1221	-6.5918	3.0267	16.1389	-116.3947	46.4200	-153	-55	59	100812	0.43 
42.421	-0.3696	0.0278	0.9326	-0.4272	-4.1504	-3.4790	2.8510	16.4026	-116.9714	46.4200	-153	-58	61	100812	0.43 
42.562	-0.3721	0.0127	0.9141	-0.7324	-1.8311	-4.6997	2.5983	16.5674	-117.3120	46.4100	-159	-59	59	100813	0.43 
42.646	-0.3232	0.0293	0.9028	0.3052	-3.6621	-0.6104	2.3511	16.7102	-117.6086	46.4000	-157	-56	60	100813	0.43 
42.733	-0.3516	0.0176	0.9067	0.0000	-3.7231	-2.0752	2.2687	16.7816	-117.5647	46.4300	-159	-56	60	100813	0.43 
42.799	-0.3516	0.0225	0.9067	-0.4272	-1.3428	-0.4272	2.1753	16.9574	-117.5977	46.4200	-160	-59	60	100813	0.43 
42.964