StartTime: 2017-07-07 11:25:55.469
Time(s)	ax(g)	ay(g)	az(g)	wx(deg/s)	wy(deg/s)	wz(deg/s)	AngleX(deg)	AngleY(deg)	AngleZ(deg)	T(°)	hx	hy	hz	Pressure(Pa)	Altitude(m) 
727.595	-0.2920	0.0747	0.9316	-0.1221	2.1362	0.6714	4.7571	17.0892	147.0850	42.7500	117	-236	149	100765	0.47 
727.783	-0.3081	0.0776	0.9316	0.3662	2.1973	0.6104	4.7845	17.4628	147.1674	42.7500	119	-234	150	100765	0.47 
727.798	-0.3047	0.0864	0.9458	-0.4883	-0.6714	1.8921	4.8560	17.5562	147.2992	42.7500	121	-235	151	100765	0.47 
727.931	-0.3096	0.0713	0.9434	-0.8545	-1.0986	0.9766	4.8065	17.5287	147.4915	42.7600	121	-236	149	100765	0.47 
727.975	-0.3101	0.0762	0.9360	-0.2441	-2.5635	-0.1831	4.7296	17.4463	147.4805	42.7700	122	-235	150	100765	0.47 
728.186	-0.2900	0.0776	0.9478	1.3428	-1.5259	-0.3052	4.8395	17.2705	147.5079	42.7700	117	-236	149	100764	0.47 
728.202	-0.3008	0.0957	0.9438	0.5493	-2.3193	-4.7607	4.8889	17.0343	147.1948	42.7800	119	-234	152	100764	0.47 
728.342	-0.2979	0.0845	0.9492	-0.9155	-2.4414	-1.6479	4.7791	16.8530	146.9421	42.7800	116	-234	151	100764	0.47 
728.388	-0.2939	0.0679	0.9551	-0.7935	-4.6997	-2.2583	4.6307	16.6443	146.8597	42.7800	118	-232	151	100764	0.47 
728.601	-0.2676	0.0718	0.9434	0.3052	-4.8828	-3.8452	4.5483	16.1060	146.6290	42.8000	119	-231	145	100764	0.47 
728.783	-0.2778	0.0811	0.9395	-0.9766	1.2817	3.1128	4.6033	15.9631	146.7004	42.8000	119	-232	148	100764	0.47 
728.833	-0.2969	0.0757	0.9561	-1.7090	-0.2441	2.5024	4.5319	16.1664	147.0905	42.7900	120	-232	146	100764	0.47 
728.844	-0.2437	0.0771	0.9194	-2.7466	3.6011	-1.9531	4.3506	16.0181	147.2278	42.8000	119	-230	146	100764	0.47 
728.969	-0.3320	0.0820	0.9258	-1.8921	17.3340	3.6011	4.1309	17.4683	147.3981	42.8000	118	-230	146	100764	0.47 
729.027	-0.3901	0.0952	0.9160	-3.6621	16.1743	13.7939	4.3231	19.2865	148.4088	42.7900	122	-232	152	100764	0.47 
729.168	-0.4243	0.0747	0.8848	-1.5259	8.1787	13.0615	4.4385	20.9729	149.5184	42.8100	122	-238	156	100764	0.47 
729.241	-0.4644	0.0371	0.8921	-8.4839	35.8887	8.6670	4.3616	23.4174	150.6335	42.8000	125	-238	163	100764	0.47 
729.353	-0.5161	0.1377	0.8291	-12.8784	42.9688	17.7612	4.0759	27.8284	151.6388	42.8200	130	-238	171	100764	0.47 
729.431	-0.1367	0.0796	0.3730	0.9155	-0.3052	-9.5825	2.8125	30.1080	151.4630	42.8300	130	-242	176	100764	0.47 
729.584	-0.3164	-0.1855	0.6260	-12.2070	38.9404	-16.6626	2.5543	32.9041	150.6226	42.8300	135	-243	184	100764	0.47 
729.656	-0.3213	0.1255	0.6626	-10.3760	11.1694	1.0376	-0.0769	34.7278	146.4807	42.8200	141	-236	196	100765	0.47 
729.833	-0.4897	0.0576	0.7632	-11.2305	7.9346	1.2207	-0.8624	35.3210	146.1456	42.8100	141	-233	196	100765	0.47 
729.983	-0.4453	-0.0962	0.7231	1.4648	-6.4087	-26.6113	-2.7850	35.8154	144.2120	42.8200	139	-234	198	100766	0.47 
730.032	-0.5049	-0.0205	0.7891	-9.1553	-40.7715	6.5308	-3.1750	35.2991	144.4098	42.8200	138	-234	196	100766	0.47 
730.208	-0.7705	0.0078	1.0454	-3.4790	-29.0527	15.2588	-3.1970	33.4698	144.6899	42.8100	129	-234	189	100767	0.47 
730.258	-0.9048	0.0396	1.1982	3.4790	-20.8740	19.5313	-2.3840	32.3328	145.3326	42.8000	126	-238	186	100768	0.46 
730.360	-0.5474	-0.0298	0.8140	-7.1411	24.9634	1.2817	-2.3621	33.3105	146.0468	42.8100	123	-243	179	100768	0.46 
730.426	-0.4053	-0.0439	0.5889	4.2114	-3.2349	0.4883	-2.2632	34.4312	145.6128	42.7900	125	-241	188	100769	0.46 
730.630	-0.5908	0.0825	0.7407	-7.3242	4.1504	-12.7563	-2.7795	34.0192	144.3439	42.7800	125	-239	189	100769	0.46 
730.764	-0.6172	-0.0381	0.8931	0.4883	21.1792	20.2637	-2.6862	35.3101	145.6348	42.7700	125	-242	182	100770	0.46 
730.812	-0.5508	-0.0557	0.8257	3.4790	8.9111	22.3389	-0.7416	36.9965	147.7606	42.7700	125	-249	189	100770	0.46 
730.824	-0.5815	0.0234	0.7813	4.3335	-5.9204	1.7700	0.4010	37.4139	148.1616	42.7900	122	-251	191	100770	0.46 
730.988	-0.8481	0.0386	0.9844	-5.4321	13.1226	9.0942	0.9778	37.1228	148.4802	42.7700	120	-253	190	100771	0.46 
731.064	-0.9087	0.0723	1.2241	-0.7935	66.8945	-7.0801	0.5878	40.9735	148.2166	42.7900	121	-251	200	100771	0.46 
731.174	-1.0537	-0.1299	1.8818	26.3062	20.5688	27.8931	1.5491	46.4777	147.9199	42.8000	125	-251	219	100772	0.46 
731.259	-0.5972	0.1484	1.3491	-24.4141	-19.1650	-4.0894	0.8130	40.3912	145.0195	42.8000	129	-248	217	100772	0.46 
731.446	-1.3867	0.3745	-0.3110	24.6582	-351.8677	43.2129	0.8130	40.3912	145.0195	42.7600	129	-248	217	100772	0.46 
731.493	0.1016	-0.6890	0.9893	-32.4707	221.3135	37.2925	2.7136	6.7291	148.6230	42.7000	80	-248	122	100771	0.46 
731.619	-0.2188	0.5635	-0.4360	15.4419	38.3301	17.5781	5.4547	3.7134	144.4537	42.6900	79	-250	119	100770	0.46 
731.681	0.0615	-0.0293	-0.2246	-6.9580	-10.1929	-46.4478	3.1036	8.1793	143.2068	42.6900	90	-252	122	100769	0.46 
731.875	-0.1802	-0.0083	-0.0610	-4.8218	29.8462	-3.4180	4.2462	11.6730	140.7129	42.6700	100	-244	128	100767	0.46 
731.947	-0.9873	-0.1196	-0.3950	-3.7842	180.4810	-55.1147	1.7908	23.1152	139.8669	42.6900	110	-244	135	100767	0.47 
732.230	-0.3862	-0.6704	1.4697	-46.8750	77.3315	65.7959	-0.6812	37.6831	142.3773	42.6700	127	-239	174	100767	0.47 
732.236	-1.1079	-0.0386	1.3735	-22.6440	4.7607	28.0151	-2.5378	47.3401	141.3940	42.6600	129	-239	196	100768	0.46 
732.299	-1.0874	-0.0688	1.3188	10.4370	-7.0190	3.2959	0.4559	49.4659	144.7174	42.6500	128	-243	212	100768	0.46 
732.387	-0.8584	0.1348	0.7759	18.0054	-23.5596	-1.7700	1.7798	46.0767	144.0198	42.6600	127	-247	212	100769	0.46 
732.449	-0.9863	0.0317	1.0513	12.5732	-31.5552	-16.1743	2.7795	43.6212	144.0692	42.6400	127	-253	208	100770	0.46 
732.605	-0.8657	0.0645	0.9526	0.4883	3.9063	-7.3242	3.3069	42.2369	143.3276	42.6300	128	-255	199	100770	0.46 
732.676	-0.5186	0.0708	0.7500	12.5732	5.4321	-0.9155	3.2300	43.0280	141.9598	42.6200	129	-254	204	100770	0.46 
732.821	-0.4189	0.0615	0.6816	10.4980	-7.8735	-13.9160	4.1199	42.4731	141.1688	42.6400	131	-253	203	100771	0.46 
732.914	-0.6860	0.0547	0.7710	13.8550	-22.9492	10.6812	5.5756	40.2704	141.4709	42.6200	131	-251	203	100771	0.46 
733.029	-0.6870	0.0752	0.7788	11.1084	-13.6719	-1.9531	6.8280	38.4082	141.5643	42.6400	131	-252	201	100771	0.46 
733.106	-0.6499	0.0913	0.8389	14.1602	4.0283	-7.1411	8.1903	39.2926	141.6962	42.6300	131	-251	200	100771	0.46 
733.256	-0.5278	0.0977	0.7773	-4.3335	-7.3853	-10.8643	7.4103	38.4906	140.0317	42.6500	131	-255	204	100771	0.46 
733.329	-0.5767	0.0859	0.7241	1.4038	-5.6152	8.6060	6.8280	37.2546	139.6033	42.6600	132	-248	202	100771	0.46 
733.475	-0.5752	0.0811	0.8413	-9.7046	-11.8408	6.8970	6.8555	37.0789	140.9381	42.6500	131	-252	201	100772	0.46 
733.498	-0.4912	0.1060	0.7969	-5.9814	-2.2583	8.6670	7.0917	36.1835	142.4323	42.6700	127	-252	199	100772	0.46 
733.621	-0.5664	0.0410	0.8799	-2.3193	6.4697	-5.0659	6.7950	35.9033	142.9156	42.6800	124	-251	196	100772	0.46 
733.713	-0.5972	0.0737	0.7988	13.0005	3.9063	-7.1411	6.9489	35.9253	141.9049	42.6800	123	-246	195	100772	0.46 
733.880	-0.8755	-0.0322	1.0083	10.2539	41.1987	-31.7993	7.1466	38.7762	140.6689	42.7100	127	-249	202	100772	0.46 
733.930	-0.6436	0.1460	0.9375	5.7983	75.0122	-38.6963	5.1801	45.5493	136.0437	42.7100	134	-236	218	100772	0.46 
734.080	-1.1621	0.1904	1.3369	1.2207	44.9219	-26.4282	1.9006	52.6025	131.6217	42.7100	141	-224	243	100772	0.46 
734.129	-1.2583	0.0552	1.0840	33.1421	-33.6304	-11.1084	2.6477	50.5701	129.4299	42.7100	151	-215	253	100771	0.46 
734.419	-1.7041	-0.0430	1.6045	-17.5781	-122.7417	39.0015	2.9718	45.6757	129.6387	42.7300	157	-210	248	100771	0.46 
734.462	-1.7041	-0.0430	1.6045	17.6392	-471.0693	21.1792	2.6807	19.6326	130.8032	42.6600	144	-215	193	100770	0.46 
734.476	0.4766	-0.0161	0.7432	-19.7144	83.0688	13.3667	2.7136	14.7052	133.6871	42.6200	116	-225	126	100769	0.46 
734.680	-0.1250	-0.1362	-0.5479	-0.0610	-21.7285	38.8794	2.0819	14.8206	137.2742	42.6100	113	-229	122	100767	0.47 
734.757	0.0303	-0.1284	0.0693	-10.5591	42.8467	34.0576	0.0714	19.5117	139.7406	42.6200	114	-233	125	100766	0.47 
734.908	-0.1538	0.0103	-0.1543	-5.4321	-0.3662	-2.2583	-2.6202	22.2253	138.1915	42.6200	115	-237	132	100765	0.47 
734.913	-0.5098	-0.0430	-0.0039	16.6626	322.2656	-9.5825	-2.8290	34.4366	140.2679	42.6100	117	-235	140	100764	0.47 
735.061 
735.138	-1.9141	-0.3394	2.1665	-10.3760	-31.0059	34.7290	-12.3706	60.6830	131.2646	42.5800	144	-238	214	100765	0.47 
735.274	-0.9658	-0.2930	1.1729	-16.7847	-15.6250	14.9536	-6.7072	53.8824	138.5980	42.5800	139	-249	208	100766	0.47 
735.331	-1.4058	-0.1772	1.2935	29.2358	-3.1128	-0.6104	-5.0702	52.1411	138.5980	42.5700	137	-250	200	100767	0.47 
735.438	-0.4189	0.1045	0.6641	-8.7280	-1.0986	-25.0244	-7.5421	50.4437	132.8687	42.5700	138	-244	201	100767	0.46 
735.524	-0.3110	0.1309	0.6318	7.6294	-5.1270	7.9956	-7.0422	49.8834	132.5500	42.5500	143	-238	203	100768	0.46 
735.729	-0.4497	0.0518	0.5933	9.7046	-67.0166	1.1597	-3.5596	44.1925	135.4614	42.5700	139	-241	197	100769	0.46 
735.789	-0.7397	0.0708	1.0942	7.9956	-2.6245	-19.1040	-3.2849	41.2317	134.1980	42.5700	140	-239	182	100769	0.46 
735.937	-0.6362	0.0479	0.9780	-3.9673	6.0425	-9.9487	-4.7571	41.4679	131.8085	42.5700	145	-234	183	100770	0.46 
735.951	-0.4131	0.0835	0.7104	-0.4272	8.4229	-2.8687	-5.1086	41.0010	131.4844	42.5900	147	-236	184	100770	0.46 
736.106	-0.4932	-0.0518	0.7661	-0.6104	-5.7983	7.5684	-3.6090	40.4791	133.5663	42.5900	142	-232	186	100770	0.46 
736.167	-0.6011	0.0645	0.8921	-6.0425	-17.0288	27.8320	-2.0709	38.9575	135.8789	42.6000	143	-236	183	100770	0.46 
736.348	-0.5698	0.0293	0.8833	-3.8452	15.8081	-3.0518	-1.9171	38.7653	137.2137	42.6000	139	-240	179	100770	0.46 
736.529	-0.5234	0.0225	0.7759	2.3193	10.7422	-0.9766	-1.6479	39.7980	136.9611	42.5900	142	-242	185	100771	0.46 
736.534	-0.6016	0.0596	0.9155	-0.4883	-6.8970	2.5635	-1.3568	40.1880	137.2742	42.6000	142	-237	191	100771	0.46 
736.708	-0.5928	0.0400	0.7617	1.8311	-5.3711	2.6855	-0.8624	38.6279	137.7795	42.6100	140	-240	186	100771	0.46 
736.750	-0.5786	0.0605	0.8135	5.0049	0.4272	4.4556	-0.0275	38.1830	138.0322	42.6000	133	-236	186	100771	0.46 
736.861	-0.5063	0.0352	0.8433	-0.6104	4.1504	2.5024	0.7196	37.9578	138.5760	42.6000	136	-240	189	100771	0.46 
736.921	-0.5107	0.0625	0.8618	-0.6714	2.7466	0.0000	0.7471	37.8589	138.5706	42.6000	139	-244	186	100771	0.46 
737.071	-0.5767	0.0513	0.8257	2.5024	-0.7935	-2.7466	0.8569	37.7985	138.2465	42.6100	137	-237	186	100771	0.46 
737.134	-0.6533	0.0469	0.8550	0.3662	0.1831	0.0000	1.1151	37.4744	138.1696	42.6300	138	-238	187	100771	0.46 
737.301	-0.6177	0.1226	0.9331	3.1128	36.9873	8.2397	1.6315	38.8916	138.5706	42.6100	139	-240	192	100771	0.46 
737.369	-0.7466	0.0957	0.9937	8.1787	48.0347	4.7607	2.9718	42.9181	139.6033	42.6100	140	-240	197	100771	0.46 
737.951	0.5898	-0.3594	-3.0688	-5.2490	-44.9829	-15.9302	2.1973	-0.1978	137.0215	42.5400	96	-227	127	100769	0.46 
738.114	0.0488	-0.0146	0.7368	-2.9907	-29.7852	6.0425	2.1973	-0.1978	137.0215	42.5100	96	-227	127	100768	0.46 
738.117	-0.1943	-0.0439	-0.1064	-5.8594	71.0449	-0.0610	-2.5653	16.6882	139.1199	42.4900	98	-231	117	100766	0.47 
738.185	-0.0659	-0.0835	-0.1665	-27.9541	14.7095	1.1597	-5.2844	22.2089	138.3673	42.4800	112	-230	120	100765	0.47 
738.348	-0.2686	-0.4761	-0.1890	-21.9727	70.1294	-28.8086	-11.4038	31.2561	136.4722	42.4700	119	-226	127	100764	0.47 
738.524	-3.7041	-1.7461	6.1079	-18.0664	85.3271	-8.4229	-11.4038	31.2561	136.4722	42.4700	146	-219	192	100765	0.47 
738.538	-0.9824	-0.3970	1.2759	-4.3335	95.2148	-3.1738	-24.5654	60.5347	120.1190	42.4600	153	-218	213	100765	0.47 
738.704	-0.8735	-0.0674	1.0132	-2.6855	30.5786	50.7202	-20.3467	63.0560	123.8983	42.4300	153	-225	226	100766	0.47 
738.718	-1.1426	0.1982	1.3657	9.8267	-47.2412	31.8604	-13.6340	59.8755	130.1056	42.4300	153	-238	218	100767	0.47 
738.906	-1.8032	-0.1875	1.2388	7.4463	-31.4941	-3.1128	-10.2722	57.0135	132.2040	42.4300	150	-245	212	100768	0.46 
738.973	-0.5146	-0.0488	0.5322	-15.3198	20.5078	-2.6855	-9.3988	57.0959	133.0554	42.4300	144	-242	212	100768	0.46 
739.151	-0.2974	0.1479	0.3965	-19.8364	0.3662	-12.1460	-12.3541	57.3486	130.7483	42.4400	143	-238	218	100768	0.46 
739.312	-0.4717	-0.1035	0.4658	-8.3008	-25.3296	1.4648	-11.3818	54.9371	133.0280	42.4400	145	-237	210	100768	0.46 
739.367	-1.2988	0.0044	1.1821	23.4985	9.8267	5.6763	-11.1017	52.3718	132.1600	42.4400	148	-236	200	100769	0.46 
739.377	-0.8521	0.0571	0.9951	9.2773	8.9111	-54.6265	-13.0408	52.7948	126.2878	42.4400	151	-234	205	100769	0.46 
739.553	-0.4385	-0.0391	0.5811	0.0000	-14.2822	-3.9673	-12.9199	50.5701	125.6781	42.4400	149	-223	211	100769	0.46 
739.619	-0.7568	0.0068	0.6006	-17.5781	-0.3662	1.4038	-12.5903	48.7683	125.7001	42.4500	151	-220	207	100769	0.46 
739.727	-0.7954	-0.0811	0.8462	-2.8076	-23.5596	4.3945	-12.5134	46.7798	127.9468	42.4700	147	-222	200	100769	0.46 
739.802	-0.6460	-0.1729	0.8599	12.0239	-0.4883	7.2021	-10.2557	46.1371	129.3475	42.4700	140	-226	198	100769	0.46 
739.917	-0.5103	-0.0786	0.6953	-1.8921	-13.5498	13.4277	-8.5199	45.0714	130.9241	42.4900	140	-223	195	100769	0.46 
740.114	-0.5757	-0.0288	0.7388	-3.9673	-14.7095	5.8594	-7.4982	43.2806	132.5500	42.4800	138	-229	193	100769	0.46 
740.162	-0.7451	-0.0488	0.8711	10.0098	16.8457	-5.3101	-7.0917	42.7203	132.4567	42.5000	135	-231	190	100770	0.46 
740.227	-0.6006	0.0044	0.7959	5.6763	-4.5776	-2.3804	-6.0150	42.5336	132.4512	42.5100	135	-229	189	100770	0.46 
740.373	-0.5732	-0.0244	0.7993	5.0659	-4.5166	-3.1738	-5.2185	41.7426	132.6270	42.5200	136	-232	191	100770	0.46 
740.568	-0.5625	-0.0430	0.7754	7.9956	-10.3760	-6.0425	-4.7736	40.5890	132.4292	42.5200	135	-229	193	100770	0.46 
740.625	-0.5894	-0.0361	0.8350	0.9766	-3.1738	-0.3662	-4.3671	39.8474	132.0612	42.5100	136	-227	190	100771	0.46 
740.743	-0.5732	0.0093	0.8135	-1.8921	2.3804	7.8125	-3.9331	39.4299	132.8467	42.5400	133	-228	189	100771	0.46 
740.802	-0.5552	0.0054	0.8101	1.0986	5.7983	3.3569	-3.1201	39.5673	134.0497	42.5400	132	-229	189	100771	0.46 
740.950	-0.6230	-0.0210	0.9204	0.2441	21.2402	7.4463	-2.3785	40.5450	134.6210	42.5600	139	-231	193	100771	0.46 
741.622	-0.6226	-0.1250	-0.7285	14.3433	178.2227	0.2441	-1.6864	8.1134	133.6102	42.4700	107	-222	119	100769	0.46 
741.639	-0.0845	0.1045	-0.1138	-0.7935	-75.8667	17.7002	-1.8732	17.1277	135.8514	42.4500	115	-230	122	100767	0.46 
741.788	-0.0752	-0.0679	0.0874	-2.8687	28.6865	-20.3247	-5.1801	20.2533	135.1813	42.4400	109	-235	112	100766	0.47 
741.974	-0.0635	0.0068	-0.0854	-11.6577	5.7983	12.8174	-4.1199	20.5554	135.2637	42.4200	109	-231	117	100765	0.47 
742.027	-0.8730	0.1055	-0.3066	4.5776	142.5781	6.2256	-8.7177	30.4102	134.1760	42.4200	112	-231	122	100764	0.47 
742.038	-2.0415	0.2744	1.7813	24.8413	-218.8721	39.3066	-16.3037	58.0573	124.2004	42.4100	143	-226	192	100765	0.47 
742.171	-1.9429	0.2441	1.9668	33.4473	114.0137	-17.5171	-7.9321	58.0133	132.6434	42.4100	139	-243	199	100765	0.47 
742.247	-1.3291	0.3433	1.4663	14.8315	38.0249	-46.0815	-3.1036	56.0358	135.4724	42.3900	136	-253	202	100766	0.47 
742.411	-1.2583	-0.1431	1.3467	4.6997	2.5635	-20.8130	-7.5311	53.7836	129.0015	42.4000	147	-245	205	100767	0.47 
742.474	-0.2275	-0.0381	0.5566	10.1318	-18.1274	-12.6953	-7.9431	51.2512	126.2494	42.3700	150	-235	203	100767	0.46 
742.623	-0.4048	0.0015	0.4756	22.4609	1.5869	-5.1270	-7.3334	51.3281	124.4971	42.3900	150	-223	207	100768	0.46 
742.772	-0.5293	0.0781	0.5747	14.1602	-15.0146	2.3804	-3.8507	50.1196	126.1890	42.3700	151	-227	211	100768	0.46 
742.861	-0.8740	0.1665	1.1265	-7.6294	-5.6152	-1.2817	-2.9553	48.1586	127.0789	42.4000	153	-228	202	100769	0.46 
742.988	-0.6738	0.1235	0.8096	-1.9531	17.6392	9.3994	-2.0270	47.9004	128.9301	42.3800	153	-228	205	100769	0.46 
743.003	-0.4888	0.0869	0.5957	2.7466	18.3716	1.5259	-0.6537	49.4495	130.2374	42.4000	152	-229	206	100769	0.46 
743.176	-0.5645	0.0259	0.7021	-4.5776	-13.2446	-8.7280	-0.4449	49.0100	130.5725	42.3900	154	-234	208	100769	0.46 
743.240	-0.7822	0.0356	0.8804	5.8594	-8.0566	4.3335	-0.3845	47.5159	130.0562	42.3900	154	-228	209	100769	0.46 
743.385	-0.6846	0.0786	0.6899	-0.5493	14.8926	-0.4272	0.2142	47.8290	130.2869	42.4000	153	-227	210	100770	0.46 
743.437	-0.6265	0.0547	0.7051	1.0376	5.0659	-9.5215	-0.1208	49.2133	129.8859	42.4200	154	-224	216	100770	0.46 
743.595	-0.6436	0.0547	0.6719	1.7700	2.0142	-2.9907	-0.6152	49.4550	128.6774	42.4200	159	-225	222	100770	0.46 
743.652	-0.7046	0.0781	0.6968	-4.8218	-7.6294	-2.8687	-0.6592	49.0155	128.8641	42.4400	158	-226	219	100770	0.46 
743.797	-0.6973	0.0762	0.7720	-5.1270	0.7935	2.5024	-0.3351	48.5925	129.8694	42.4500	154	-226	219	100771	0.46 
743.859	-0.6665	0.0586	0.7197	0.0000	-1.0376	-1.4038	-0.0989	48.1421	130.2704	42.4400	155	-227	216	100770	0.46 
744.040	-0.6318	0.0664	0.6899	0.3052	-2.8687	-2.4414	0.0769	47.6202	130.2759	42.4800	157	-224	217	100771	0.46 
744.250	-0.5347	0.0620	0.6138	0.1831	-35.0342	-6.5308	0.4010	44.7253	130.3528	42.4700	158	-224	213	100771	0.46 
744.255	-0.6338	0.0361	0.7451	-3.1128	0.1831	-1.5869	0.0165	44.0167	129.9792	42.4900	155	-222	210	100771	0.46 
744.311	-0.6162	0.0322	0.7334	-2.9907	0.9766	-2.3193	-0.4944	44.0057	129.7540	42.4700	156	-221	209	100771	0.46 
744.445	-0.6118	0.0322	0.7476	1.1597	-2.6855	-5.3711	-0.8075	43.8739	129.3091	42.4900	157	-220	209	100771	0.46 
744.602	-0.6577	0.0293	0.7769	-0.4883	0.0000	-4.2114	-0.9943	43.5553	128.8202	42.4900	157	-218	210	100771	0.46 
744.682	-0.6577	0.0439	0.7852	0.3052	2.6855	-8.3618	-1.3239	43.2806	128.2489	42.5100	156	-221	210	100771	0.46 
744.811	-0.6553	0.0518	0.7583	-4.7607	-7.1411	9.5825	-0.9613	42.7313	128.7158	42.5100	158	-216	211	100771	0.46 
744.868 
745.497	0.6885	-0.2075	0.7520	-9.8267	164.6118	30.1514	-0.1923	12.2058	129.5563	42.4400	118	-203	125	100769	0.46 
745.646	-0.1216	0.0728	-0.4312	-11.5967	-11.7798	25.2686	-3.5925	14.6283	131.7865	42.4200	122	-209	120	100768	0.46 
745.705	0.1235	0.0977	0.1221	-26.2451	-16.7236	0.3662	-7.9211	18.4296	130.1825	42.4000	124	-206	120	100766	0.47 
745.859	-0.2524	-0.0376	-0.1694	-34.7290	6.4087	6.8970	-6.8445	15.4248	133.0994	42.4000	122	-201	117	100765	0.47 
745.890	-1.0146	-0.3672	-0.1348	0.1831	227.7222	4.5166	-11.7004	27.5043	133.0170	42.4000	124	-201	124	100765	0.47 
746.078	-0.4575	0.0723	0.5771	10.9863	-136.4746	76.7822	-12.8540	48.0817	131.5283	42.3900	150	-209	190	100765	0.47 
746.205	-1.8032	0.0239	2.0708	0.7935	111.2671	66.1011	-15.1831	58.8043	128.2214	42.3500	156	-214	220	100765	0.47 
746.253	-0.5049	-0.0786	0.9150	-11.4746	17.7002	6.1035	-11.3544	57.0081	130.8087	42.3400	158	-225	226	100766	0.47 
746.322	-1.2627	-0.1753	1.1626	-22.2168	-33.2031	-7.6294	-16.6003	56.5411	126.8042	42.3400	158	-227	229	100767	0.47 
746.516	-0.9834	-0.2378	0.8438	2.8687	-44.7998	18.8599	-14.4690	52.0587	129.0894	42.3400	158	-224	218	100767	0.47 
746.621	-0.2563	-0.0752	0.4438	-2.5024	19.7754	2.1973	-13.8098	50.7843	129.0015	42.3400	156	-223	209	100767	0.46 
746.696	-0.5693	-0.0742	0.5947	-3.2349	-35.4614	-9.9487	-14.5129	52.2400	127.5513	42.3300	157	-224	218	100768	0.46 
746.818	-0.7676	-0.1309	0.6768	13.9160	-38.1470	-2.4414	-13.5187	47.9828	127.7765	42.3300	157	-221	212	100769	0.46 
746.888	-0.8433	-0.1143	0.8242	6.5308	10.2539	-8.9722	-12.9913	46.0602	126.4691	42.3400	151	-217	203	100769	0.46 
747.025	-0.6226	-0.0981	0.7603	3.2959	14.1602	-9.9487	-13.3319	47.3291	125.0299	42.3600	154	-216	210	100769	0.46 
747.104	-0.5713	-0.1431	0.6387	4.8218	-1.8921	-9.7656	-13.5846	47.0544	123.7280	42.3600	157	-217	214	100769	0.46 
747.232	-0.6714	-0.2183	0.7104	10.6201	-23.8037	-11.5356	-13.2440	45.7526	123.0139	42.3700	156	-213	209	100769	0.46 
747.300	-0.7495	-0.1021	0.8340	4.3945	-3.7231	-2.6245	-12.7661	44.0057	122.4097	42.3700	157	-208	205	100770	0.46 
747.452	-0.6011	-0.0444	0.7598	1.6479	-0.1831	-2.0142	-12.2772	43.3301	122.2668	42.3900	158	-209	204	100770	0.46 
747.525	-0.6021	-0.0449	0.7285	0.9155	-3.0518	10.1318	-11.0303	42.8302	123.3765	42.4000	158	-208	205	100770	0.46 
747.672	-0.6689	-0.0791	0.7676	-1.7090	-1.2207	11.6577	-9.7009	42.5555	125.0958	42.4100	152	-209	205	100770	0.46 
747.734	-0.6489	-0.0879	0.7769	-1.8921	-0.3052	6.2256	-8.9868	42.3907	126.2439	42.4200	153	-213	201	100770	0.46 
747.841	-0.5962	-0.0850	0.7612	1.3428	0.3662	-4.5166	-8.8220	42.2314	126.2549	42.4300	153	-215	200	100770	0.46 
747.936	-0.6128	-0.0688	0.7720	2.1362	-0.6714	-5.9204	-8.8495	41.9348	125.7440	42.4300	154	-212	202	100770	0.46 
748.253	-0.7822	-0.1104	0.8672	-0.4883	6.4697	1.4648	-8.8495	41.9238	125.3760	42.4300	152	-211	203	100771	0.46 
748.302	-0.7842	-0.1030	0.8525	-1.0376	37.9639	4.2114	-8.9923	44.2310	124.9640	42.4300	151	-210	205	100771	0.46