StartTime: 2017-07-07 11:39:38.562
Time(s)	ax(g)	ay(g)	az(g)	wx(deg/s)	wy(deg/s)	wz(deg/s)	AngleX(deg)	AngleY(deg)	AngleZ(deg)	T(°)	hx	hy	hz	Pressure(Pa)	Altitude(m) 
6.675	-0.1758	0.0635	0.9780	0.2441	-0.4272	1.0376	3.4607	9.5801	116.1200	43.7300	16	-4	101	100772	0.46 
6.836	-0.1689	0.0630	0.9849	0.2441	-1.0986	0.6714	3.5046	9.5581	115.6366	43.7300	17	-3	105	100771	0.46 
6.906	-0.1802	0.0620	0.9907	0.0000	-1.4038	0.0000	3.5211	9.5856	115.4059	43.7300	14	-8	106	100771	0.46 
7.064	-0.1777	0.0654	0.9888	0.0000	-0.8545	0.0610	3.5431	9.4977	115.2411	43.7400	14	-7	105	100771	0.46 
7.130	-0.1592	0.0649	0.9712	-0.5493	-1.0376	-0.4883	3.5596	9.2834	115.1312	43.7300	14	-5	103	100771	0.46 
7.229	-0.1714	0.0635	0.9907	0.0000	-2.0752	-0.1831	3.5431	9.2065	114.9060	43.7400	12	-4	101	100771	0.46 
7.263	-0.1523	0.0640	0.9790	0.0000	-2.0752	0.1221	3.5541	8.9813	114.9500	43.7500	10	-9	101	100771	0.46 
7.295	-0.1597	0.0625	0.9883	0.0000	-1.0986	0.4883	3.5596	8.8934	115.2301	43.7500	11	-7	107	100771	0.46 
7.430	-0.1655	0.0640	0.9966	-0.0610	-0.8545	0.9155	3.5706	8.7946	115.3180	43.7600	8	-6	102	100771	0.46 
7.504	-0.1582	0.0688	0.9863	-0.3662	-0.3662	1.5869	3.5760	8.6737	115.5432	43.7500	13	-7	101	100771	0.46 
7.692	-0.1978	0.0552	0.9980	-0.3052	-7.5684	0.1221	3.5706	8.4705	115.6201	43.7600	13	-7	103	100771	0.46 
7.872	-0.1997	0.0542	1.0269	0.3052	-16.5405	0.3662	3.5266	7.3718	115.5212	43.7600	11	-8	103	100771	0.46 
7.923	-0.1606	0.0776	0.9932	2.9907	-51.1475	-0.4272	3.7408	4.1638	115.2301	43.7600	2	-8	98	100771	0.46 
8.023	-0.0435	0.1064	0.9937	0.9155	-67.0166	11.1084	4.0375	-1.6864	118.7238	43.7600	-12	-10	91	100771	0.46 
8.062	0.0947	0.0562	0.9800	5.7373	-84.4727	9.0942	4.0100	-9.4482	124.8376	43.7700	-25	-7	86	100771	0.46 
8.126	0.3867	0.0620	0.9380	9.5825	-104.9194	8.1177	4.5758	-19.4623	131.4459	43.7500	-53	-7	79	100771	0.46 
8.323	0.4810	0.0469	0.8867	9.7656	-98.3276	23.5596	4.7900	-29.2017	138.7793	43.7700	-79	-8	74	100771	0.46 
8.368	0.8149	0.1704	0.6118	1.0376	-93.1396	10.4370	4.9988	-39.2596	145.8160	43.7800	-105	-11	75	100771	0.46 
8.462	0.8296	0.0610	0.7002	-5.3101	-84.2896	12.5732	3.8782	-47.2852	153.0011	43.7600	-124	-12	86	100771	0.46 
8.653	1.2554	0.0664	0.4834	-6.7749	-71.5942	17.1509	2.8290	-54.7998	159.4006	43.7800	-143	-12	91	100771	0.46 
8.700	0.7769	-0.0981	0.2534	-7.5684	-35.5835	2.9297	2.0325	-59.8755	164.7894	43.7700	-157	-14	102	100771	0.46 
8.846	0.8296	-0.0361	0.3931	-2.0142	-8.7891	-5.6152	4.1254	-61.2817	167.0471	43.7600	-165	-12	106	100771	0.46 
8.898	0.5605	0.0513	0.6133	-2.0752	5.5542	-13.9160	5.2350	-58.5187	170.3485	43.7600	-166	-14	106	100770	0.46 
9.061	0.8521	0.0469	0.4609	-1.8921	9.0332	-1.8311	5.5316	-58.5846	174.5453	43.7500	-162	-13	104	100770	0.46 
9.117	0.9258	0.0342	0.5522	-1.4648	-8.8501	-6.1035	5.8228	-58.2770	178.7970	43.7400	-162	-15	102	100771	0.46 
9.279	0.7710	0.0200	0.5098	-0.2441	3.3569	-1.5869	6.9049	-59.1833	-178.1049	43.7300	-166	-15	103	100770	0.46 
9.342	0.8604	0.0664	0.4697	-1.5869	0.3662	0.0000	7.1246	-59.5020	-174.0564	43.7300	-166	-16	104	100770	0.46 
9.447	0.8794	0.0508	0.4897	-0.3662	-1.4648	3.8452	7.0148	-59.3976	-169.9255	43.7400	-168	-15	106	100770	0.46 
9.505	0.9248	-0.0254	0.4951	0.1831	2.6245	-0.7935	6.2402	-59.6173	-165.3223	43.7300	-164	-14	103	100770	0.46 
9.730	0.8877	0.0474	0.4888	-0.3052	2.3193	0.0000	6.5369	-59.4360	-161.9989	43.7200	-162	-15	104	100770	0.46 
9.736	0.8740	0.0615	0.5054	-0.1831	0.4272	-0.3662	6.7181	-59.2053	-158.7030	43.7100	-166	-13	105	100770	0.46 
9.869	0.8862	0.0396	0.4893	-0.6104	-1.0986	-0.3052	6.7072	-59.3042	-155.4071	43.7300	-165	-14	103	100770	0.46 
9.936	0.8828	0.0381	0.4863	-0.5493	0.5493	0.3052	6.7456	-59.4305	-152.3804	43.7300	-167	-18	106	100770	0.46 
10.128	0.8809	0.0459	0.4883	0.1221	-2.3193	-0.7935	6.7346	-59.5129	-149.4250	43.7300	-167	-16	105	100770	0.46 
10.197	0.8774	0.0444	0.4883	0.1831	0.4883	-0.8545	6.6193	-59.5898	-146.5137	43.7400	-163	-16	105	100770	0.46 
10.327	0.8662	0.0508	0.5024	-0.0610	-0.3662	-0.4883	6.6248	-59.5569	-143.8715	43.7300	-170	-17	104	100770	0.46 
10.377	0.8794	0.0454	0.4902	-0.1221	-0.0610	-0.1221	6.5588	-59.6613	-141.3336	43.7300	-162	-19	106	100769	0.46 
10.493	0.8687	0.0386	0.4966	-0.1221	0.1831	0.0000	6.4600	-59.6832	-138.8617	43.7400	-167	-13	106	100769	0.46 
10.575	0.8403	0.0444	0.4668	-0.1221	-1.0376	0.0000	6.4435	-59.7986	-136.5601	43.7400	-168	-16	107	100769	0.46 
10.717	0.8672	0.0498	0.4966	0.4272	0.4272	-1.9531	6.2897	-59.8315	-134.3024	43.7600	-166	-15	104	100769	0.46 
10.862	0.8721	0.0464	0.4966	-0.1221	-0.9766	-0.5493	6.5039	-59.8260	-132.5061	43.7400	-164	-14	107	100769	0.46 
10.899	0.8760	0.0400	0.4907	-0.0610	0.1221	-0.6714	6.4929	-59.9084	-130.6274	43.7400	-164	-16	108	100769	0.46 
11.149	0.8682	0.0522	0.4966	-0.1831	0.0000	-0.6104	6.5094	-59.8645	-128.9026	43.7500	-164	-17	105	100769	0.46 
11.193	0.8755	0.0688	0.4722	-0.1831	-1.5259	-2.9297	7.1960	-59.9194	-127.9907	43.7500	-168	-16	101	100769	0.46 
11.308	0.9033	0.0381	0.5137	-2.7466	5.6152	-0.6104	6.9049	-59.7217	-126.1725	43.7600	-166	-14	104	100769	0.46 
11.361	0.9624	0.1484	0.6045	-3.1128	-26.8555	14.2822	6.0535	-60.1501	-123.7500	43.7500	-163	-14	103	100769	0.46 
11.480	0.8315	-0.0264	0.4858	2.3193	-28.6865	0.8545	5.1746	-62.7209	-121.5088	43.7500	-169	-15	108	100769	0.46 
11.563	0.8652	-0.0322	0.5425	10.2539	-35.9497	-7.3242	5.5261	-65.2258	-120.4706	43.7600	-173	-15	112	100769	0.46 
11.760	0.9219	0.1997	0.3730	5.4321	-2.9907	-14.6484	11.1401	-66.8079	-124.1235	43.7600	-183	-18	116	100769	0.46 
11.831	0.9033	0.0518	0.3325	-4.5166	38.0249	-4.0894	12.5793	-65.2588	-124.0961	43.7400	-185	-19	113	100769	0.46 
11.991	0.9780	0.1265	0.5078	-0.9155	52.2461	7.1411	9.9756	-60.6940	-120.4761	43.7500	-176	-20	110	100769	0.46 
12.096	0.7715	0.0996	0.5576	-1.8311	55.7251	1.6479	7.7014	-55.6952	-116.8561	43.7600	-163	-21	99	100769	0.46 
12.130	0.6577	0.0571	0.5078	-5.5542	73.3643	2.6245	6.0150	-49.4714	-114.3622	43.7500	-141	-19	91	100769	0.46 
12.197	0.6509	-0.0210	0.8398	-10.8032	96.6797	-2.0752	4.1199	-39.0619	-111.9946	43.7600	-119	-18	86	100769	0.46 
12.325	0.4795	0.0186	0.8472	-5.2490	101.1963	-0.4883	3.3948	-29.5917	-111.1871	43.7600	-92	-14	82	100769	0.46 
12.543	0.3076	0.0044	0.9146	-2.3804	95.4590	-7.6904	2.8015	-19.5282	-110.3796	43.7500	-61	-14	83	100769	0.46 
12.579	0.1733	0.0522	0.9346	0.0000	94.5435	-6.1035	2.7795	-9.9261	-110.3082	43.7300	-35	-12	84	100769	0.46 
12.692	-0.0903	-0.0005	0.9526	-2.3804	102.3560	-5.0049	2.6917	0.1868	-111.2476	43.7300	-8	-14	94	100769	0.46 
12.746	-0.4248	0.1484	0.9448	-2.8687	88.5010	-10.5591	2.8235	10.4041	-117.9053	43.7100	16	-12	108	100770	0.46 
12.945	-0.5825	0.0122	0.9482	8.6670	4.5776	13.4888	3.8013	15.7050	-123.4149	43.7000	39	-6	121	100770	0.46 
13.001	-0.3174	0.0098	0.9473	-4.5776	29.4189	-11.5356	4.3286	16.8036	-129.5892	43.6900	46	-8	122	100770	0.46 
13.178	-0.4033	0.0464	0.8735	-2.8687	11.8408	-7.5684	4.1309	18.7317	-136.4722	43.6800	47	-6	128	100770	0.46 
13.185	-0.4707	0.0464	0.8979	-1.3428	0.1221	-6.1646	4.0210	19.7919	-143.2562	43.6800	45	-4	129	100770	0.46 
13.351	-0.4214	0.0059	0.9243	1.4038	-15.0146	1.8311	4.2462	19.3579	-149.1833	43.6900	44	-3	131	100770	0.46 
13.353	-0.3345	0.0151	0.9536	2.5024	-17.6392	2.6855	4.5374	17.7594	-154.7479	43.6800	41	-5	133	100770	0.46 
13.520	-0.2905	0.0493	0.9395	1.7090	-7.6294	1.8311	4.6527	16.5399	-160.1202	43.6800	39	-3	125	100771	0.46 
13.593	-0.3047	0.0264	0.9526	1.8921	-7.6904	4.7607	4.9164	16.0950	-164.9762	43.6900	37	-6	120	100770	0.46 
13.732	-0.2915	0.0483	0.9468	1.2207	-6.7139	2.8687	5.1086	15.5292	-169.6674	43.6700	37	-9	121	100770	0.46 
13.795	-0.3188	0.0781	0.9150	2.0142	-13.3667	-3.1128	5.1691	14.7931	-174.5618	43.6900	38	-6	121	100770	0.46 
13.956	-0.2417	0.0420	0.9346	0.1221	-9.2773	3.0518	5.2130	14.0625	-178.9453	43.6800	34	-8	117	100770	0.46 
14.008	-0.2710	0.0503	0.9536	-1.2207	-1.3428	1.4648	5.1526	13.7933	177.0282	43.7000	35	-7	115	100770	0.46 
14.193	-0.2822	0.0273	0.9863	0.9155	-4.0283	1.6479	5.0427	13.7823	173.0786	43.7000	30	-5	120	100770	0.46 
14.350	-0.2515	0.0537	0.9629	-0.3052	-5.2490	0.4272	5.0098	13.2715	169.0576	43.7000	31	-7	116	100771	0.46 
14.408	-0.2363	0.0322	1.0083	-0.1221	-12.8174	0.0610	4.8834	12.6782	165.4486	43.7000	30	-8	115	100771	0.46 
14.419	-0.2109	0.0425	0.9595	-0.9155	-5.6763	-0.9766	4.7571	11.4807	162.0099	43.7100	30	-7	112	100771	0.46 
14.507	-0.1963	0.0366	0.9595	-1.2207	0.1831	-0.2441	4.5923	11.2830	158.6536	43.7100	30	-8	111	100771	0.46 
14.579	-0.2144	0.0449	0.9766	0.5493	-2.0752	0.9155	4.5044	11.2939	155.3687	43.7100	26	-3	110	100771	0.46 
14.771	-0.1987	0.0513	0.9761	0.7324	-1.7700	1.1597	4.5209	11.2280	152.6001	43.7200	23	-10	111	100771	0.46 
14.845	-0.2148	0.0562	0.9814	0.2441	-2.1973	0.0000	4.5264	11.1786	150.1392	43.7100	25	-10	111	100771	0.46 
14.943	-0.2065	0.0571	0.9897	-0.3662	-0.6714	0.4272	4.4385	11.0303	147.7057	43.7400	20	-7	111	100770	0.46 
14.992	-0.2617	0.0674	1.0654	0.3052	-16.7236	3.8452	4.3616	10.4535	145.3271	43.7300	25	-8	111	100770	0.46 
15.211	-0.0884	0.0400	0.8828	0.5493	-16.1743	-2.8076	4.3341	7.5476	143.4100	43.7500	18	-7	104	100770	0.46 
15.352	-0.1646	0.0400	0.9980	1.8311	-17.7002	0.2441	4.2682	6.4490	141.3116	43.7300	18	-7	104	100770	0.46 
15.394	-0.1421	0.0615	1.0156	2.9907	-22.6440	5.0659	4.4714	4.7571	139.6198	43.7500	10	-8	103	100769	0.46 
15.417	-0.0850	0.0649	1.0068	4.0283	-33.6304	3.8452	4.8065	2.0435	139.3066	43.7400	4	-11	98	100769	0.46 
15.582	-0.0239	0.0693	0.9985	3.6011	-50.9644	-3.8452	5.0372	-1.9171	140.3778	43.7600	-1	-11	90	100768	0.46 
15.639	0.0288	0.0781	1.0098	3.6621	-61.0962	6.8970	5.3723	-7.1631	143.4540	43.7500	-17	-12	85	100769	0.46 
15.779	0.2241	0.0771	0.9302	0.6104	-76.1719	20.1416	5.4547	-14.4800	149.1339	43.7600	-38	-16	79	100768	0.46 
15.827	0.3120	0.0137	0.8257	3.7231	-107.4219	4.0283	4.8010	-23.6426	155.1654	43.7600	-56	-15	74	100768	0.46 
16.034	0.3413	0.2329	1.1201	-1.2207	-71.9604	68.4204	5.0482	-32.9425	161.8835	43.7500	-87	-13	72	100768	0.46 
16.040	0.7266	0.0303	0.3672	-10.0708	-109.6191	30.4565	2.4060	-47.2632	169.6893	43.7600	-116	-14	78	100768	0.46 
16.170	0.7070	0.0527	0.2471	-5.1270	-106.6284	-13.6108	1.8787	-59.4360	174.7266	43.7600	-143	-13	92	100768	0.46 
16.236	1.5913	-0.1221	-0.0708	-7.4463	-79.8340	-26.8555	6.6302	-70.2960	173.2159	43.7500	-172	-14	110	100768	0.46 
16.412	0.6890	0.2090	0.4365	1.2817	46.2036	-15.8691	14.7162	-68.1757	167.7612	43.7600	-185	-18	121	100768	0.46 
16.547	1.0767	0.0161	0.2773	-3.1128	30.3955	-5.1880	13.2220	-66.7310	174.2542	43.7500	-188	-22	121	100768	0.46 
16.591	0.7935	0.1982	0.3760	-12.5122	15.2588	2.9297	11.6400	-63.4680	179.9231	43.7300	-180	-20	112	100769	0.46 
16.807	0.8740	0.1821	0.3550	2.3193	-1.7090	0.9766	9.7449	-62.5067	-173.8147	43.7400	-174	-18	108	100769	0.46 
16.864	0.9453	-0.0186	0.3989	-6.1035	-10.6812	6.2866	8.3167	-62.8088	-168.4534	43.7300	-172	-19	111	100769	0.46 
16.968	0.9121	0.0737	0.4390	0.4272	-1.8921	-6.8359	8.3551	-63.2593	-165.1630	43.7300	-173	-17	110	100769	0.46 
17.035	0.9126	0.0225	0.4146	-1.4648	-0.4272	5.1270	8.3990	-63.5229	-161.7627	43.7100	-172	-19	111	100769	0.46 
17.192	0.8765	0.0317	0.4058	0.6104	0.6714	0.4272	7.9816	-63.6603	-158.0273	43.7300	-168	-17	115	100769	0.46 
17.252	0.9087	0.0522	0.4307	0.0000	2.9297	-1.2207	7.9431	-63.4900	-154.8029	43.7300	-170	-20	112	100769	0.46 
17.383	0.8857	0.0503	0.4517	-0.6104	0.6714	0.0610	7.8442	-63.2867	-151.7047	43.7500	-173	-17	112	100769	0.46 
17.439	0.9033	0.0420	0.4370	0.1221	-0.9766	-0.1221	7.5696	-63.3636	-148.6670	43.7200	-170	-18	111	100769	0.46 
17.598	0.9209	0.0693	0.4370	-0.0610	-2.9907	-3.9673	7.4872	-63.4900	-145.9094	43.7200	-168	-15	112	100770	0.46 
17.663	0.8818	0.0425	0.4102	-0.7324	-0.8545	0.5493	7.6849	-63.7427	-143.5858	43.7200	-172	-15	107	100769	0.46 
17.820	0.9160	0.0386	0.4375	0.3662	-0.1831	0.0000	7.5037	-63.8361	-140.9821	43.7400	-172	-16	113	100769	0.46 
17.874	0.8965	0.0479	0.4404	0.5493	-2.5635	1.0376	7.3059	-64.0283	-138.4058	43.7300	-173	-18	110	100770	0.46 
18.018	0.9058	0.0459	0.4199	0.6104	-3.6621	1.0376	7.1411	-64.3799	-136.0272	43.7300	-174	-17	111	100769	0.46 
18.074	0.9326	0.0234	0.4243	1.7700	-2.5635	-1.8921	7.0972	-64.7424	-133.8794	43.7300	-171	-16	112	100769	0.46 
18.215	0.8989	0.0449	0.3901	0.1831	-6.6528	2.9297	7.5806	-65.2588	-132.2919	43.7400	-176	-18	111	100769	0.46 
18.265	0.9185	0.0498	0.4072	0.6104	-2.9907	0.4883	7.5037	-65.6927	-130.3473	43.7300	-176	-17	111	100769	0.46 
18.449	0.9209	0.0449	0.3975	0.3662	-3.3569	0.3052	7.3938	-66.0333	-128.4851	43.7400	-175	-20	114	100769	0.46 
18.630	0.9155	0.0381	0.3970	0.7324	-3.4790	0.4883	7.3444	-66.3519	-126.8152	43.7200	-176	-17	111	100769	0.46 
18.687	0.9253	0.0430	0.3882	0.5493	-2.6855	1.1597	7.2894	-66.6925	-125.2112	43.7200	-174	-18	112	100769	0.46 
18.698	0.9312	0.0347	0.3735	0.1831	-2.5024	1.7090	7.2839	-67.0056	-123.7445	43.7400	-173	-17	114	100769	0.46 
18.846	0.9263	0.0386	0.3833	0.3052	-1.8921	0.8545	7.0532	-67.2473	-122.1350	43.7200	-173	-17	119	100769	0.46 
19.007	0.9287	0.0400	0.3735	0.3052	-2.9297	0.7935	6.8225	-67.4945	-120.6189	43.7500	-177	-16	112	100769	0.46 
19.060	0.9238	0.0337	0.3740	0.1221	-2.0752	0.1831	6.7072	-67.7472	-119.3225	43.7300	-175	-15	111	100769	0.46 
19.272	0.9399	0.0337	0.3535	-0.5493	-1.9531	1.2817	6.7950	-67.9504	-118.3612	43.7300	-178	-19	114	100769	0.46 
19.288	0.9272	0.0830	0.3755	-7.2632	-3.6621	6.9580	6.6962	-68.1647	-117.3010	43.7300	-177	-19	114	100769	0.46 
19.410	0.9224	0.0234	0.3296	1.1597	-5.7373	-0.4883	6.6522	-68.4723	-116.7792	43.7300	-177	-19	117	100769	0.46 
19.464	0.9160	0.0444	0.3638	3.3569	-9.3994	-5.1880	7.0697	-69.0381	-116.1584	43.7400	-180	-17	116	100770	0.46 
19.679	1.0229	0.0044	0.2363	5.7373	-31.0059	3.1128	10.7062	-71.0980	-118.5974	43.7400	-184	-20	120	100770	0.46 
19.851	1.0386	0.0835	0.0405	2.9297	16.1743	-4.3335	13.9362	-71.9714	-120.5475	43.7600	-190	-26	119	100770	0.46 
19.899	1.1060	0.2114	0.4482	-2.5635	71.1060	0.4883	15.3314	-66.4453	-121.2506	43.7500	-187	-26	115	100770	0.46 
19.910	0.8608	0.1899	0.3511	-6.3477	66.4673	12.2681	11.7059	-61.0620	-116.8286	43.7600	-177	-24	106	100770	0.46 
20.007	0.7510	0.1675	0.5894	-1.6479	71.4722	35.6445	6.3281	-54.9207	-110.0995	43.7600	-154	-23	95	100770	0.46 
20.092	0.4556	0.0327	0.8306	1.1597	71.0449	-17.7612	5.2405	-47.7631	-108.1549	43.7600	-131	-21	85	100770	0.46 
20.303	0.4165	0.0854	0.9014	-12.0850	87.2192	-22.3389	5.3174	-39.5288	-109.2371	43.7500	-114	-19	79	100770	0.46 
20.342	0.3965	0.0376	0.8052	-7.1411	94.3604	-8.7891	5.3174	-31.2067	-109.7040	43.7500	-93	-22	77	100770	0.46 
20.462	0.3638	0.0483	0.8794	-6.7139	80.0781	-7.6904	4.6088	-22.8241	-109.5557	43.7200	-68	-22	79	100770	0.46 
20.659	-0.0093	0.0337	0.9741	-6.3477	83.8623	-24.6582	4.0155	-13.3374	-111.0992	43.7300	-42	-19	80	100771	0.46 
20.721	0.0371	0.0366	0.9790	-2.8687	84.1064	-7.2021	3.5211	-4.5648	-112.3572	43.7000	-23	-14	83	100770	0.46 
20.839	-0.2769	0.1030	1.1064	-1.9531	56.3965	5.7373	3.1311	2.4609	-114.4995	43.6800	-7	-13	93	100770	0.46 
20.855	-0.2651	0.0620	0.9658	8.7280	53.0396	5.0659	4.3286	7.8552	-118.7073	43.7000	14	-12	103	100770	0.46 
21.015	-0.3384	0.0347	0.9634	5.1880	24.7192	4.2725	5.4382	11.6016	-123.8434	43.6700	29	-16	106	100770	0.46 
21.080	-0.3579	0.0913	0.9214	-2.2583	19.3481	20.7520	6.5039	13.5791	-129.3420	43.6400	35	-13	109	100770	0.46 
21.260	-0.3447	0.1724	0.9702	0.0610	6.8359	-11.0474	6.3007	14.8370	-135.6702	43.6400	41	-13	112	100770	0.46 
21.277	-0.3496	0.0713	0.9238	-0.7935	4.9438	0.1221	6.6248	15.2545	-141.7181	43.6500	37	-13	113	100769	0.46 
21.415	-0.3203	0.0713	0.9614	-0.9766	-0.3662	0.7324	6.5039	15.6171	-147.2443	43.6300	40	-14	114	100769	0.46 
21.484	-0.3105	0.0752	0.9478	-0.2441	-1.0986	-2.5635	6.5039	15.6500	-152.7319	43.6400	36	-14	114	100769	0.46 
21.683	-0.3247	0.0981	0.9385	-2.3193	-1.1597	-0.3662	6.3391	15.7654	-158.0548	43.6100	39	-11	114	100770	0.46 
21.883	-0.2861	0.0728	0.9468	-2.5635	-2.3804	0.7935	6.1688	15.6995	-162.9712	43.6100	38	-12	114	100770	0.46 
22.049	-0.2847	0.0605	0.9409	-2.1362	-2.4414	-0.6714	5.8722	15.6445	-167.8162	43.6200	38	-13	116	100770	0.46 
22.054	-0.2925	0.0620	0.9482	-1.0376	-1.3428	-1.4648	5.6085	15.7214	-172.6227	43.6300	39	-12	114	100770	0.46 
22.098	-0.2964	0.0669	0.9419	-0.9766	-0.9155	-0.1831	5.4602	15.8423	-177.0996	43.6000	34	-14	114	100770	0.46 
22.110	-0.2988	0.0513	0.9453	-0.4272	0.4272	0.0610	5.3778	16.0510	178.6981	43.6300	36	-10	116	100770	0.46 
22.306	-0.3052	0.0581	0.9492	0.2441	-0.6104	-0.2441	5.3394	16.2103	174.6497	43.6300	36	-10	114	100770	0.46 
22.547	-0.3062	0.0625	0.9453	-0.0610	-0.4883	-0.3052	5.2899	16.2927	170.8374	43.6200	33	-13	113	100769	0.46 
22.617	-0.3052	0.0562	0.9521	0.0000	-1.3428	-0.0610	5.2405	16.3641	167.2668	43.6400	36	-13	117	100769	0.46 
22.732	-0.3037	0.0571	0.9517	0.0000	-2.8076	-0.3052	5.1965	16.2762	163.8116	43.6600	35	-10	112	100769	0.46 
22.777	-0.3223	0.0400	0.9683	1.3428	-12.0850	-0.1831	5.2789	15.7599	160.4828	43.6400	34	-11	119	100769	0.46 
22.863	-0.2656	0.0791	0.9526	-1.7700	-7.5073	3.4180	5.2954	14.6448	157.6428	43.6400	32	-12	115	100769	0.46 
22.917	-0.2637	0.0552	0.9570	-1.0376	-10.9253	0.9155	5.1361	13.8153	154.9951	43.6500	32	-15	113	100769	0.46 
22.918	-0.2573	0.0615	0.9854	1.0376	-14.3433	2.4414	5.0812	12.8156	152.4188	43.6700	32	-13	113	100769	0.46 
23.056	-0.2451	0.0693	0.9849	2.1973	-30.5786	7.3242	5.2954	10.7281	150.1996	43.6700	27	-12	107	100769	0.46 
23.108	-0.1875	0.0698	0.9971	2.0142	-35.2783	9.5825	5.4218	7.6904	148.6395	43.6700	18	-14	105	100769	0.46 
23.303	-0.1089	0.0962	1.0210	-4.1504	-27.7100	7.2632	5.3778	4.3781	148.1561	43.6800	9	-15	98	100769	0.46 
23.321	-0.0825	0.0415	0.9912	3.6621	-64.8193	0.2441	5.1965	-0.2417	147.5574	43.6800	0	-19	93	100769	0.46 
23.457	0.0186	0.0762	0.9526	6.1646	-88.4399	14.0381	5.4053	-7.6410	149.7052	43.6900	-14	-15	82	100769	0.46 
23.517	0.1519	0.0869	0.9424	7.3242	-133.5449	-3.1738	5.7953	-18.3691	154.2426	43.7000	-40	-16	75	100769	0.46 
23.731	0.3208	0.1011	0.7700	-9.7656	-147.5220	27.2827	5.3613	-31.2396	159.7522	43.6900	-76	-14	73	100769	0.46 
23.748	0.6641	0.2002	0.6929	-2.9907	-140.1978	14.5874	4.4275	-46.1810	165.0531	43.7200	-121	-15	80	100769	0.46 
23.890	1.0571	-0.3418	0.4404	0.4883	-104.9805	-5.4321	1.8127	-59.5789	173.3368	43.7000	-150	-14	96	100769	0.46 
23.951	1.4209	0.0762	-0.3101	-4.8828	-118.5303	-23.9868	8.9648	-72.3505	169.7003	43.6900	-176	-14	117	100769	0.46 
24.082	0.7290	0.1177	0.1206	0.3052	67.9321	-22.7051	18.9789	-72.9382	164.1467	43.6900	-193	-20	135	100769	0.46 
24.158	1.0635	0.2627	0.0322	-7.3242	8.9722	6.7749	17.5616	-68.5712	170.0189	43.6800	-194	-22	124	100769	0.46 
24.307	0.8647	0.1938	0.5552	-10.0098	30.2734	3.6011	13.7988	-65.0391	177.4512	43.7000	-187	-24	119	100769	0.46 
24.375	0.8081	-0.2168	0.4922	2.4414	-9.6436	8.3618	7.4323	-64.3799	-172.6007	43.7000	-177	-18	118	100769	0.46 
24.569	0.8726	0.0542	0.3164	0.4272	-4.2725	-1.7700	8.8660	-65.1599	-170.0244	43.6800	-178	-16	116	100769	0.46 
24.614	0.9424	0.0010	0.4722	0.7935	10.8643	-5.4321	8.8824	-64.7809	-166.5308	43.6800	-177	-18	115	100769	0.46 
24.747	0.8950	0.0913	0.4248	0.3662	4.7607	4.2114	10.3162	-64.1656	-164.0479	43.6700	-177	-15	114	100769	0.46 
24.888	0.8892	0.0454	0.4204	-0.2441	-1.2207	-3.4180	10.0909	-64.0668	-160.3894	43.6800	-178	-14	115	100769	0.46 
24.953	0.9233	0.0400	0.4023	-2.3804	-1.3428	-1.0376	9.8438	-64.2206	-157.1210	43.7000	-176	-18	114	100770	0.46 
25.132	0.9209	0.0742	0.4043	-0.2441	-2.9907	-1.5869	9.9426	-64.3524	-154.2810	43.6700	-175	-16	114	100770	0.46 
25.149	0.9170	0.0552	0.4087	1.5259	-2.2583	-2.1362	9.9207	-64.6271	-151.3477	43.6900	-177	-16	115	100770	0.46 
25.343	0.8960	0.0332	0.3975	-0.1221	-0.4883	0.4883	9.7009	-64.9072	-148.3594	43.6600	-178	-16	114	100770	0.46 
25.350	0.8765	0.0610	0.3994	0.3052	-4.2725	1.7700	9.8547	-65.0885	-145.8490	43.6700	-177	-18	115	100770	0.46 
25.548	0.9219	0.0562	0.3931	0.5493	-4.2114	-0.7324	9.6405	-65.5115	-143.1519	43.6900	-179	-17	118	100770	0.46 
25.591	0.9053	0.0547	0.4009	0.6104	-4.1504	0.1831	9.6625	-65.8960	-140.8008	43.6800	-179	-18	119	100770	0.46 
25.688	0.9253	0.0532	0.3828	0.6104	-3.0518	0.4272	9.6954	-66.3245	-138.6200	43.6700	-179	-20	119	100771	0.46 
25.748	0.9287	0.0532	0.3853	0.7935	-3.2349	0.6714	9.6899	-66.6595	-136.4832	43.6600	-176	-14	119	100771	0.46 
25.959	0.9219	0.0581	0.3628	-0.1221	-3.9063	1.8311	9.8163	-67.0825	-134.5605	43.6900	-183	-14	117	100771	0.46 
26.125	0.9321	0.0527	0.3740	0.4883	-2.6245	0.1831	9.6515	-67.4286	-132.5500	43.6900	-182	-18	119	100771	0.46 
26.129	0.9214	0.0522	0.3726	0.5493	-3.7231	0.2441	9.6240	-67.7087	-130.7593	43.6800	-181	-19	115	100770	0.46 
26.180	0.9307	0.0503	0.3608	0.3662	-2.1973	0.0000	9.6185	-68.0164	-129.1113	43.6800	-184	-19	121	100770	0.46 
26.348	0.9326	0.0518	0.3560	0.0000	-1.0986	0.7935	9.5746	-68.2306	-127.5128	43.6800	-182	-16	117	100770	0.46 
26.420	0.9312	0.0474	0.3477	-0.5493	-0.0610	1.0986	9.6515	-68.3789	-126.1230	43.7100	-182	-17	121	100770	0.46 
26.563	0.9390	0.0566	0.3647	-0.1221	0.7324	-0.3662	9.5911	-68.4174	-124.7003	43.7000	-185	-17	120	100770	0.46 
26.692	0.9312	0.0566	0.3618	-0.3052	-0.9155	-0.1831	9.5197	-68.4283	-123.3490	43.7000	-184	-19	121	100770	0.46 
26.761	0.9370	0.0303	0.3696	0.4883	1.5259	-1.4648	9.3823	-68.4283	-122.0361	43.7100	-181	-19	120	100769	0.46 
26.984	0.8027	0.0864	0.2983	-1.9531	-15.9912	-4.3945	9.5306	-68.4448	-121.2836	43.7200	-179	-14	120	100770	0.46 
27.184	0.8701	-0.0337	0.4336	3.2959	-7.7515	-0.0610	9.7174	-69.4611	-120.3497	43.7100	-185	-17	121	100770	0.46 
27.235	0.9595	0.0239	0.3135	7.0801	-23.9258	-11.7188	11.4807	-72.0044	-120.8167	43.7000	-185	-17	126	100770	0.46 
27.324	1.0649	-0.0205	0.1216	4.2725	34.7290	4.2725	14.6063	-72.6801	-122.4591	43.7000	-192	-21	128	100770	0.46 
27.369	0.9131	0.1836	0.3003	-4.0283	70.3735	0.1221	12.1399	-66.2805	-118.7842	43.6900	-187	-23	120	100771	0.46 
27.381	0.9092	0.0610	0.3960	-2.1362	74.5239	8.4229	8.8000	-59.0240	-114.1589	43.7000	-167	-21	105	100771	0.46 
27.593	0.7104	0.0288	0.6201	-1.7700	76.1108	-11.5967	7.0807	-51.1304	-112.0880	43.6800	-150	-20	94	100771	0.46 
27.781	0.7397	0.0430	0.8682	-10.9253	101.8066	-14.5874	6.8060	-42.0886	-111.8628	43.7000	-127	-23	84	100771	0.46 
27.843	0.5220	0.1040	0.8052	-10.0708	85.6934	3.2959	5.4108	-33.0963	-110.6598	43.6800	-99	-20	79	100772	0.46 
27.952	0.3467	0.0654	0.8789	-10.6201	78.3691	-16.4185	4.0100	-24.5435	-109.6381	43.6800	-75	-17	77	100772	0.46 
28.012	0.2305	0.0659	0.9810	-5.3101	80.4443	-5.3101	3.8617	-15.8917	-110.1654	43.6600	-51	-17	79	100772	0.46 
28.023	0.0864	-0.0059	1.0127	-7.3242	69.8242	4.2725	2.7795	-8.1409	-109.5721	43.6600	-31	-18	86	100772	0.46 
28.187	0.0786	0.0112	0.8955	-3.2959	68.8477	-8.4229	2.0215	-0.3735	-110.6653	43.6400	-7	-16	92	100772	0.46 
28.230	-0.3652	0.1240	1.0015	-6.8359	63.9038	4.1504	1.8182	7.5916	-116.2628	43.6300	12	-9	105	100772	0.46 
28.335	-0.3687	-0.0259	0.9668	-1.2207	41.3208	-3.2959	1.9885	12.7222	-121.8274	43.6200	33	-9	119	100772	0.46 
28.422	-0.4302	0.0034	0.9326	-2.8076	21.9116	-2.4414	2.0764	16.0016	-128.4686	43.6100	42	-11	124	100772	0.46 
28.593	-0.4243	0.0112	0.9395	-0.3662	4.0283	0.0000	2.2467	17.6935	-134.6814	43.6000	45	-9	131	100772	0.46 
28.652	-0.2432	0.0044	0.8286	2.8076	-21.4233	-0.8545	2.8015	16.2653	-140.6085	43.6100	48	-7	131	100771	0.46 
28.780	-0.3311	-0.0063	0.9658	3.1128	-6.9580	2.9907	3.0927	15.8203	-146.4697	43.6100	45	-7	127	100771	0.46 
28.834	-0.3174	0.0303	0.9556	5.1270	-7.8125	1.6479	3.5925	15.2490	-152.0947	43.6200	40	-9	124	100771	0.46 
29.048	-0.3247	0.0605	1.0015	7.0801	-15.1978	-1.0986	4.1803	14.4415	-157.4396	43.6000	41	-6	123	100772	0.46 
29.181	-0.2212	0.0332	0.9688	5.6763	-10.3149	4.8218	4.9713	12.7057	-162.5043	43.6100	39	-10	116	100772	0.46 
29.241	-0.2080	0.0601	0.9556	4.2725	-7.8735	3.3569	5.4382	12.0081	-166.9647	43.6100	37	-13	112	100772	0.46 
29.253	-0.2397	0.0566	1.0010	4.2725	0.5493	2.0752	5.8502	11.8378	-171.0132	43.5900	34	-15	111	100772	0.46 
29.435	-0.2324	0.0806	0.9434	1.6479	-1.0986	-2.1973	6.1633	11.7114	-175.3198	43.6200	38	-16	111	100772	0.46 
29.458	-0.2290	0.0811	0.9771	-0.0610	-3.6621	-0.1221	6.1908	11.6180	-179.2529	43.6000	36	-16	111	100772	0.46 
29.588	-0.1841	0.0737	1.0020	1.4648	-11.5967	7.8125	6.1963	10.9918	177.1930	43.6100	32	-15	106	100771	0.46 
29.667	-0.2036	0.0669	0.9668	-0.9766	-0.1831	2.5024	6.2732	10.1514	174.1553	43.6100	32	-16	106	100771	0.46 
29.764	-0.1987	0.0771	0.9575	-1.0986	-3.9673	0.6104	6.1798	10.1184	170.8923	43.6100	31	-17	105	100771	0.46 
29.857	-0.1958	0.0757	0.9683	0.0610	-4.4556	1.4648	6.1249	9.9426	167.9205	43.6200	35	-20	104	100771	0.46 
30.277	-0.1494	0.0684	0.9653	0.5493	5.1270	-1.0376	6.0480	9.9371	165.0970	43.6200	38	-16	109	100771	0.46 
30.332	-0.2246	0.0791	0.9810	0.9155	-1.5869	-0.4272	6.1414	10.3436	162.3505	43.6400	36	-18	106	100771	0.46 
30.419	-0.1792	0.0854	0.9658	0.6714	-2.3193	-0.2441	6.1523	10.1678	159.5709	43.6100	33	-16	104	100771	0.46 
30.423	-0.2080	0.0801	0.9893	0.4883	-2.8076	0.4883	6.1194	10.0800	157.0111	43.6400	36	-16	102	100771	0.46 
30.471	-0.1890	0.0767	0.9766	0.1831	-3.5400	-0.2441	6.0645	9.8822	154.4843	43.6400	32	-13	104	100771	0.46 
30.482	-0.1880	0.0815	0.9883	0.1831	-4.0894	0.2441	6.0095	9.5581	152.3090	43.6700	30	-16	102	100771	0.46 
30.636	-0.1860	0.0825	0.9824	0.0000	-6.6528	0.4272	5.9601	9.0747	150.5511	43.6600	27	-22	100	100771	0.46 
30.796	-0.1587	0.0762	0.9863	0.1831	-11.6577	-2.2583	5.8392	8.2452	148.8812	43.6800	27	-21	102	100771	0.46 
30.864	-0.1802	0.0703	1.0186	0.0000	-15.6860	0.8545	5.7733	7.0972	147.3596	43.6700	22	-20	98	100771	0.46 
31.037	-0.1279	0.0894	0.9805	-1.5869	-24.0479	1.4648	5.7074	5.1141	146.2335	43.6500	20	-21	95	100771	0.46 
31.186	-0.0449	0.0928	1.0054	-0.6714	-30.6396	1.7090	5.5975	2.4060	145.3546	43.6700	11	-20	94	100771	0.46 
31.239	-0.0049	0.1045	0.9536	-0.0610	-28.4424	-2.2583	5.5811	-0.8844	145.8984	43.6900	3	-20	90	100771	0.46 
31.253	0.0054	0.0679	1.0181	-0.9766	-50.5371	0.5493	5.2734	-4.2023	147.5079	43.6800	-5	-17	85	100771	0.46 
31.392	0.1357	0.0361	0.9673	0.0610	-70.5566	10.3149	5.0482	-10.4041	151.4026	43.6900	-18	-18	79	100771	0.46 
31.465	0.2529	0.0034	1.0186	7.4463	-96.9238	-6.1646	5.4932	-18.6328	155.7037	43.7000	-42	-19	77	100771	0.46 
31.609	0.4336	0.1069	0.8804	3.1738	-114.3188	24.3530	6.1249	-28.5315	159.8895	43.7200	-74	-25	75	100771	0.46 
31.686	0.7793	0.0210	0.6260	-3.1128	-119.5068	21.8506	4.9768	-40.5011	166.8494	43.7100	-102	-21	76	100771	0.46 
31.784	0.8433	0.0576	0.4531	-8.1787	-119.6289	22.7661	3.4442	-52.3169	172.9358	43.7200	-130	-19	88	100771	0.46 
31.864	1.2197	-0.1084	0.3389	-9.1553	-107.9102	-1.6479	3.3563	-63.7701	177.2754	43.7300	-161	-13	102	100771	0.46 
32.063	1.4526	-0.0801	-0.1528	-0.6714	-10.9253	-28.6255	11.8323	-72.7679	171.7932	43.7300	-181	-14	119	100770	0.46 
32.259	0.7993	0.2979	0.2432	4.2725	-6.2256	-28.6865	19.4897	-69.6698	168.8324	43.7300	-192	-24	125	100770	0.46 
32.319	1.0337	0.0933	0.2290	-7.3242	30.0293	3.6621	17.9297	-68.2526	174.4958	43.7100	-194	-24	121	100770	0.46 
32.406	0.9058	0.0156	0.5020	-2.6855	28.9917	11.5356	12.7661	-65.0500	-176.6547	43.7300	-188	-22	118	100771	0.46 
32.453	0.9043	-0.0083	0.4536	0.6714	0.0000	1.7700	10.0250	-64.2316	-169.9365	43.7200	-179	-18	113	100771	0.46 
32.479	0.8965	0.0269	0.3975	-0.2441	-4.5166	-4.2725	9.3329	-64.5447	-165.8002	43.7100	-180	-19	116	100771	0.46 
32.652	0.8770	0.1099	0.4302	-0.0610	0.3052	4.5776	10.4755	-64.5007	-163.3777	43.7000	-179	-19	117	100770	0.46 
32.714	0.9370	0.0195	0.3701	-2.0142	1.5259	0.9155	9.9207	-64.7260	-159.4775	43.6700	-176	-19	113	100770	0.46 
32.852	0.9126	0.0430	0.3989	-0.4272	4.8218	-1.4038	9.7284	-64.4733	-156.1652	43.6900	-175	-20	113	100771	0.46 
32.901	0.9141	0.0718	0.4263	-0.7935	4.2725	-0.6714	9.5087	-64.0668	-153.0615	43.6900	-175	-18	113	100771	0.46 
33.112	0.9067	0.0547	0.4287	-0.3662	0.6714	0.1831	9.3604	-63.8965	-150.0623	43.7000	-178	-17	109	100771	0.46 
33.163	0.8931	0.0640	0.4292	-1.1597	1.2207	1.7090	9.1516	-63.9459	-147.1838	43.7000	-174	-17	108	100771	0.46 
33.302	0.9092	0.0479	0.4248	0.0000	0.3052	-0.1831	9.0143	-64.0393	-144.4592	43.7100	-175	-15	113	100771	0.46 
33.422	0.8960	0.0605	0.4287	-0.2441	-0.1831	-0.5493	9.0802	-64.0833	-142.0642	43.7100	-175	-16	111	100771	0.46 
33.503	0.9092	0.0508	0.4253	-0.1221	0.1221	-0.2441	8.9758	-64.1327	-139.6967	43.7000	-175	-19	113	100771	0.46 
33.674	0.9028	0.0498	0.4282	0.0000	0.3662	-0.4883	8.8495	-64.1437	-137.4664	43.7000	-177	-20	112	100771	0.46 
33.818	0.8770	0.0566	0.4077	-0.2441	-0.7324	0.1221	8.8550	-64.2590	-135.4944	43.7100	-172	-19	111	100771	0.46 
33.868	0.9102	0.0459	0.4214	0.2441	0.0610	-0.2441	8.6682	-64.2975	-133.4344	43.7000	-172	-21	112	100771	0.46 
33.881	0.9019	0.0552	0.4351	0.0000	-0.3662	-0.1221	8.5254	-64.2700	-131.5009	43.6900	-174	-21	112	100771	0.46 
34.060	0.9053	0.0522	0.4243	-0.2441	0.2441	-0.0610	8.4595	-64.3030	-129.7540	43.7000	-175	-19	111	100771	0.46 
34.237	0.9009	0.0498	0.4326	-0.3662	1.0376	0.1831	8.3386	-64.2645	-128.0511	43.7000	-176	-18	108	100770	0.46 
34.302	0.9238	0.0474	0.4619	0.2441	-1.2817	-1.0376	8.2343	-64.1986	-126.4362	43.7000	-171	-19	110	100770	0.46 
34.314	0.9131	0.0498	0.4204	-0.7324	-0.0610	0.3662	8.1409	-64.2096	-124.8816	43.6900	-175	-15	114	100770	0.46 
34.457	0.9067	0.0503	0.4468	-0.0610	-0.0610	0.3662	7.9486	-64.1382	-123.3490	43.6900	-175	-16	116	100770	0.46 
34.522	0.9038	0.0542	0.4287	0.0610	-2.1973	0.3052	7.8223	-64.3524	-121.9318	43.7100	-174	-19	115	100770	0.46 
34.666	0.9165	0.0522	0.4346	-0.7324	-0.3662	1.7700	7.6630	-64.4788	-120.6464	43.7000	-176	-18	113	100770	0.46 
34.739	0.9146	0.0449	0.4136	0.2441	-3.3569	1.2207	7.4927	-64.6820	-119.3445	43.7200	-175	-18	113	100770	0.46 
34.896	0.9141	0.0386	0.4180	0.4883	-3.0518	1.4038	7.4652	-65.1270	-118.1689	43.7100	-173	-18	115	100770	0.46 
34.948	0.9229	0.0483	0.4155	0.5493	-3.7231	0.2441	7.4652	-65.5444	-117.1252	43.7000	-176	-17	112	100770	0.46 
35.372	0.9209	0.0488	0.4048	0.6104	-4.2114	0.3662	7.4872	-65.9674	-116.1804	43.7100	-178	-21	110	100770	0.46 
35.434	0.9146	0.0474	0.3950	0.5493	-3.9673	0.3662	7.5861	-66.3794	-115.3674	43.7100	-177	-18	113	100770	0.46 
35.527	0.8945	0.1143	0.5220	-1.9531	8.0566	6.8359	8.1464	-65.8411	-115.1807	43.7000	-177	-22	115	100770	0.46 
35.529	0.7856	0.0913	0.3633	-1.8921	-20.4468	3.7842	8.3276	-66.0498	-114.6808	43.7100	-178	-19	111	100769	0.46 
35.574	0.9204	0.0479	0.4282	1.1597	-14.5874	0.4272	8.3002	-67.5330	-113.8733	43.7100	-181	-16	112	100770	0.46 
35.656	0.7402	0.0098	0.3979	4.9438	-20.1416	-0.6104	9.4373	-69.3182	-114.1974	43.7100	-181	-18	116	100770	0.46 
35.721	1.1729	0.1377	0.1421	2.8076	9.0942	-10.1318	12.5739	-70.6311	-116.2793	43.7100	-187	-20	120	100770	0.46 
35.845	1.0215	0.1553	0.3374	-4.3945	48.6450	-3.6621	12.8430	-67.1979	-115.8728	43.7300	-184	-24	119	100770	0.46 
36.112	0.8887	0.0483	0.4600	-4.0894	61.6455	23.0713	8.9648	-62.3804	-111.1542	43.7100	-177	-21	110	100770	0.46 
36.334	0.8574	0.0981	0.5962	-10.4370	69.8853	-0.6104	4.9713	-56.3159	-107.3804	43.7200	-156	-21	98	100770	0.46 
36.338	0.9404	0.0020	0.6470	-7.6904	57.0068	-2.9907	3.4607	-48.8617	-106.0840	43.7300	-141	-16	92	100770	0.46 
36.500	0.7568	0.1475	0.6772	-15.7471	53.8940	-12.8174	2.0984	-42.1820	-106.0510	43.7300	-121	-15	89	100771	0.46 
36.547	0.6011	-0.0049	0.8262	-6.1035	48.2788	0.7324	1.1646	-36.5240	-105.2600	43.7300	-102	-11	87	100771	0.46 
36.557	0.4907	-0.0576	0.8828	-7.2021	57.3730	0.7324	0.2142	-30.9100	-104.4525	43.7400	-85	-12	86	100771	0.46 
36.558	0.4697	-0.0215	0.8579	-1.2207	64.5142	-4.3335	-0.1538	-24.6204	-104.3152	43.7400	-68	-10	86	100770	0.46 
36.696	0.3003	0.0444	0.9199	1.6479	71.2891	10.0708	0.0439	-17.5342	-103.8153	43.7400	-52	-9	87	100770	0.46 
36.773	0.1348	-0.0205	0.9326	3.1738	56.0913	10.1318	-0.1978	-10.8435	-102.3596	43.7400	-29	-12	92	100770	0.46 
36.920	-0.0220	-0.0327	0.9844	8.3008	67.1387	0.9155	0.2142	-4.1473	-101.7224	43.7400	-7	-12	96	100771	0.46 
36.976	-0.1509	-0.0083	0.9658	7.0190	62.9883	-10.4370	1.2524	2.6697	-107.5342	43.7300	9	-16	100	100770	0.46 
37.122	-0.2046	0.1230	0.9619	0.6104	41.8091	-2.9297	2.1973	7.9926	-114.7577	43.7400	24	-16	110	100770	0.46 
37.327	-0.3018	0.0410	0.9390	7.8125	28.7476	-15.4419	2.5598	12.0575	-122.1240	43.7600	32	-11	117	100770	0.46 
37.388	-0.4351	0.0322	0.9790	1.0986	8.6060	1.5259	3.2520	14.6338	-128.7048	43.7500	40	-14	114	100770	0.46 
37.482	-0.3545	0.0400	0.9346	3.2959	7.3242	2.2583	3.6200	15.7489	-134.4012	43.7500	44	-12	118	100770	0.46 
37.553	-0.3867	0.0352	0.9307	1.4038	1.1597	0.4883	4.1803	16.4246	-140.1416	43.7600	48	-11	120	100770	0.46 
37.715	-0.3110	0.0522	0.9419	-0.2441	-6.8359	0.2441	4.3561	16.1829	-145.9424	43.7600	47	-12	120	100770	0.46 
37.771	-0.3120	0.0386	0.9443	-1.0376	-5.1880	0.3052	4.2737	15.7764	-151.5344	43.7600	45	-13	121	100770	0.46 
37.917	-0.2886	0.0332	0.9487	-1.7090	-3.9063	-0.4272	4.1034	15.5402	-156.9781	43.7600	43	-9	123	100770	0.46 
37.972	-0.2822	0.0288	0.9351	0.1831	-3.9063	-0.6714	3.9276	15.2820	-162.3944	43.7700	43	-13	126	100770	0.46 
38.116	-0.3237	0.0229	0.9507	-1.8921	-1.2207	1.7090	3.9056	15.3754	-167.1075	43.7900	42	-8	121	100769	0.46 
38.132	-0.2974	0.0391	0.9624	-0.3052	-10.8643	2.6245	3.9056	14.9908	-171.8591	43.7800	45	-10	118	100769	0.46 
38.316	-0.2178	0.0537	0.9800	0.3662	-28.1982	11.8408	3.9661	13.2111	-175.9406	43.7700	39	-11	120	100769	0.46 
38.334	-0.2129	0.0283	0.9707	-1.4038	-8.0566	-3.1128	3.8562	11.4807	179.5166	43.7900	36	-11	115	100769	0.46 
38.523	-0.1982	0.0293	0.9629	-0.4883	-3.4180	0.3052	3.6420	11.0248	175.0507	43.8000	33	-11	112	100769	0.46 
38.600	-0.2114	0.0293	0.9829	-2.2583	-1.8311	0.3052	3.4222	10.9589	171.4966	43.8000	31	-13	115	100769	0.46 
38.732	-0.2231	0.0098	0.9932	0.2441	-2.6245	1.0376	3.2684	10.9424	167.7228	43.8100	34	-11	113	100769	0.46 
38.746	-0.2036	0.0234	0.9722	0.9766	-2.3193	2.6855	3.2520	10.6897	164.2291	43.8200	34	-12	111	100769	0.46 
38.957	-0.1489	0.0391	0.9688	0.8545	8.9722	3.7231	3.3398	10.8875	161.4716	43.8100	32	-13	112	100769	0.46 
39.219	-0.2368	0.0259	0.9673	2.0752	4.9438	-1.0986	3.4442	11.7334	158.4888	43.8200	36	-8	113	100769	0.46 
39.312	-0.2666	0.0352	0.9829	0.8545	-4.0894	1.4038	3.6090	12.0190	155.5444	43.8000	35	-12	115	100769	0.46 
39.448	-0.2480	0.0283	0.9863	1.8311	-10.4980	-1.5869	3.7244	11.4148	152.5562	43.8400	37	-12	115	100769	0.46 
39.514	-0.1870	0.0474	0.9917	1.2207	-9.1553	-1.2207	3.7793	10.3766	149.8590	43.8200	36	-14	110	100770	0.46 
39.624	-0.1611	0.0400	0.9775	1.2817	-7.9346	-0.9155	3.8452	9.4592	147.5299	43.8300	29	-16	109	100769	0.46 
39.746	-0.1479	0.0503	1.0146	1.2817	-3.8452	1.0376	3.9056	8.7341	145.5798	43.8500	28	-16	108	100770	0.46 
39.797	-0.1514	0.0542	0.9937	1.4648	-4.5776	0.0610	3.9331	8.2123	143.8660	43.8500	25	-17	105	100770	0.46 
39.798	-0.1499	0.0430	0.9790	1.6479	-6.5918	-0.4883	4.0265	7.6575	142.6025	43.8500	26	-17	101	100770	0.46 
39.798	-0.1138	0.0762	0.9868	-0.6104	-2.6855	-2.6855	4.0814	7.0972	141.1304	43.8700	25	-14	102	100770	0.46 
39.931	-0.1372	0.0293	0.9888	0.1221	-0.1221	0.1831	4.0375	6.9928	139.8724	43.8700	18	-15	100	100770	0.46 
40.183	-0.1187	0.0669	0.9922	2.0142	0.0000	-6.1646	4.0100	6.9928	138.4991	43.8700	21	-16	102	100770	0.46 
40.265	-0.1274	0.0640	0.9897	0.7324	0.7324	-2.3193	4.0704	7.1411	137.4719	43.8600	19	-17	101	100770	0.46 
40.414	-0.1436	0.0620	0.9995	0.0000	3.1128	0.0610	4.0485	7.3389	136.3019	43.8800	19	-15	99	100770	0.46 
40.485	-0.1416	0.0669	0.9868	0.9155	0.6104	-0.9766	4.0540	7.4487	135.3186	43.8600	20	-11	101	100770	0.46 
40.594	-0.1470	0.0786	0.9922	0.2441	-0.8545	0.0610	4.0704	7.4268	134.4452	43.8900	18	-17	98	100770	0.46 
40.657	-0.1152	0.0693	0.9790	-0.1221	-1.9531	2.0752	4.1034	7.1960	133.9838	43.8800	19	-16	100	100770	0.46 
40.735	-0.1182	0.0620	0.9902	-0.0610	0.6104	0.9766	4.0594	7.1686	133.5498	43.8900	21	-16	96	100771	0.46 
40.784	-0.1255	0.0649	0.9932	-0.2441	2.4414	-0.4272	4.0210	7.3938	133.0609	43.9000	17	-15	98	100770	0.46 
40.807	-0.1421	0.0620	0.9883	-0.6714	3.9063	-1.2817	3.9496	7.7179	132.5940	43.8900	16	-15	97	100770	0.46 
40.944	-0.1528	0.0610	0.9800	-0.9766	-0.1221	0.6104	3.8562	7.9761	132.0996	43.9100	16	-11	100	100770	0.46 
41.016	-0.1484	0.0635	0.9907	-0.3052	-0.1831	0.0000	3.7628	8.0530	131.5009	43.9000	19	-13	99	100770	0.46 
41.185	-0.1558	0.0576	0.9878	0.3052	-2.1362	0.4272	3.7408	8.0200	130.7208	43.9000	21	-12	99	100770	0.46 
41.241	-0.1401	0.0532	0.9849	0.7324	-5.9204	1.0986	3.7958	7.6959	130.1056	43.8800	20	-15	100	100770	0.46 
41.383	-0.1182	0.0649	0.9819	0.6714	-1.5259	-1.0376	3.8672	7.1906	129.9408	43.9000	19	-16	101	100769	0.46 
41.431	-0.0620	0.0532	1.0391	2.5024	-5.7983	-2.0142	3.9441	6.9049	129.8474	43.8900	17	-17	100	100770	0.46 
41.668	-0.0630	0.0952	0.9819	6.5918	-11.7188	8.8501	4.6307	5.8118	129.2267	43.9300	17	-18	96	100769	0.46 
41.726	-0.0674	0.1040	0.9722	4.3945	-3.4790	3.0518	5.1251	5.1251	130.3967	43.9100	13	-20	92	100769	0.46 
41.815	-0.1040	0.0771	0.9907	1.8921	-0.6714	-10.3149	5.3448	5.1361	131.0944	43.9300	13	-23	96	100770	0.46 
41.869	-0.0610	0.0938	0.9683	-0.9155	5.1880	2.5635	5.5646	5.2075	131.9458	43.9200	10	-16	91	100770	0.46 
42.009	-0.1216	0.0894	0.9775	0.3662	10.1929	5.9814	5.6250	5.9491	133.3685	43.9400	13	-22	96	100770	0.46 
42.169	-0.1431	0.0703	0.9829	-2.1973	2.1362	2.6855	5.6580	6.6248	134.1431	43.9300	20	-20	96	100770	0.46 
42.239	-0.1333	0.0732	1.0146	-1.9531	-8.1177	0.4272	5.5096	6.5204	133.7640	43.9400	22	-22	92	100770	0.46 
42.382	-0.0747	0.1050	0.9160	-7.9346	-1.2817	-12.4512	4.9109	6.1469	133.0994	43.9300	17	-21	92	100770	0.46 
42.446	-0.1055	0.0601	1.0078	-4.1504	-0.7324	-3.8452	4.3616	6.1249	132.7203	43.9300	13	-16	95	100769	0.46 
42.587	-0.1265	0.0566	0.9946	-1.2207	3.3569	0.3662	4.0320	6.2292	132.5995	43.9500	13	-16	96	100769	0.46 
42.659	-0.1152	0.0625	0.9785	1.8311	-0.0610	3.2959	4.0869	6.3721	132.6984	43.9600	16	-15	94	100769	0.46 
42.762	-0.1338	0.0732	0.9985	2.0752	0.6104	1.7700	4.2957	6.5149	132.8412	43.9500	18	-20	97	100769	0.46 
42.833	-0.0903	0.0830	0.9624	1.2207	5.5542	-0.6714	4.5154	6.6852	132.9675	43.9600	15	-18	96	100769	0.46 
43.025	-0.1499	0.0820	0.9956	0.1221	5.7373	-0.6104	4.6307	7.1686	133.1378	43.9300	17	-16	93	100769	0.46 
43.041	-0.1284	0.0791	0.9824	-0.1831	3.5400	0.1221	4.6417	7.4323	133.0664	43.9400	16	-18	96	100769	0.46 
43.168	-0.1196	0.0762	0.9844	0.2441	1.5259	-2.2583	4.6362	7.7234	132.9291	43.9200	16	-17	98	100769	0.46 
43.240	-0.1748	0.0840	0.9844	-0.4883	2.7466	0.8545	4.6088	8.1079	132.5775	43.9500	18	-16	97	100769	0.46 
43.356	-0.1982	0.1162	0.9014	-2.7466	2.9907	-0.6104	4.5099	8.4045	132.0337	43.9400	21	-18	98	100769	0.46 
43.435	-0.0928	0.1221	0.9229	0.6104	-1.5869	-5.1270	4.4055	8.3221	131.9183	43.9500	17	-16	101	100769	0.46 
43.605	-0.1812	0.0601	0.9785	-0.9155	-3.2959	7.3853	4.2297	8.7891	131.3965	43.9400	20	-17	100	100769	0.46 
43.672	-0.1333	0.0933	0.9854	-0.4272	1.2817	-0.4272	4.1858	8.3990	131.2537	43.9200	21	-17	101	100769	0.46 
43.784	-0.1787	0.0728	0.9902	-3.2349	-0.9766	-4.2114	4.0265	8.5034	130.6769	43.9700	24	-16	103	100769	0.46 
43.839	-0.1328	0.0200	1.0098	-1.0986	-5.7373	-10.0708	3.5651	8.1793	129.7705	43.9700	19	-18	105	100769	0.46 
44.033	-0.1470	0.0488	0.9883	-1.0986	0.1831	0.0000	3.4772	7.9431	128.9301	43.9600	19	-14	100	100769	0.46 
44.195	-0.1479	0.0684	0.9897	-1.0986	-3.6621	1.8311	3.4662	7.7399	128.5840	43.9700	18	-14	98	100769	0.46 
44.249	-0.1260	0.0640	0.9878	-2.2583	-1.5869	1.7700	3.3344	7.4652	128.4192	43.9600	16	-14	98	100769	0.46 
44.262	-0.1387	0.0586	0.9863	-0.7935	1.0986	-3.3569	3.1256	7.5916	127.8314	43.9700	19	-16	100	100769	0.46 
44.411	-0.1538	0.0508	0.9956	-0.6104	-1.0376	-4.2114	2.9993	7.7673	127.0789	43.9500	20	-15	98	100769	0.46 
44.482	-0.1445	0.0596	0.9854	-1.5259	-1.3428	-6.7749	2.8125	7.7618	125.8923	43.9500	15	-13	101	100769	0.46 
44.648	-0.1470	0.0420	0.9971	-0.4883	-1.1597	0.5493	2.6147	7.8223	125.1782	43.9600	11	-11	103	100769	0.46 
44.660	-0.1411	0.0469	0.9883	0.9155	-6.4697	3.3569	2.6532	7.5366	125.2716	43.9800	13	-13	105	100769	0.46 
44.813	-0.1299	0.0469	0.9863	0.8545	-4.4556	4.3945	2.7905	7.0367	125.4364	43.9800	14	-11	102	100769	0.46 
44.879	-0.1050	0.1558	1.0063	0.1831	0.0000	7.3853	3.0048	6.7346	125.6396	43.9700	13	-8	98	100768	0.46 
45.003	-0.1289	0.0435	0.9756	0.2441	8.3618	-4.0283	2.8729	6.7731	125.5408	43.9700	15	-13	102	100768	0.46 
45.086	-0.1372	0.0703	0.9985	1.2817	1.3428	-2.2583	2.9828	7.0313	125.4034	43.9800	14	-14	98	100769	0.46 
45.262	-0.1338	0.0654	0.9810	0.2441	2.7466	2.5024	3.1146	7.2510	125.5573	43.9900	14	-12	103	100769	0.46 
45.331	-0.1084	0.0327	0.9810	-0.7324	0.2441	0.3662	3.1311	7.3553	125.4034	43.9900	16	-12	102	100769	0.46 
45.459	-0.1265	0.0625	0.9829	0.3052	0.9155	-1.8921	3.0762	7.3114	125.0629	43.9900	14	-10	98	100770	0.46 
45.502	-0.1025	0.0493	0.9824	-0.0610	2.9907	2.0752	3.1366	7.4817	124.8926	43.9800	17	-11	99	100770	0.46 
45.725	-0.1509	0.0435	0.9854	-0.6714	5.0659	-1.7090	3.1366	7.9266	124.7717	43.9900	17	-12	101	100770	0.46 
45.820	-0.1523	0.0664	0.9873	-0.8545	2.1973	-3.1738	3.0707	8.4540	124.4366	43.9900	15	-13	100	100769	0.46 
45.823	-0.1860	0.0439	1.0049	-1.5259	3.1738	-0.0610	2.9333	9.1132	124.1840	44.0000	16	-14	101	100769	0.46 
46.012	-0.1538	0.0439	0.9844	-0.5493	1.4648	0.6714	2.8015	9.2230	123.7720	44.0100	17	-12	103	100769	0.46 
46.025	-0.1748	0.0532	0.9883	-0.3052	-1.4648	0.6714	2.8180	9.2505	123.3820	44.0000	17	-14	105	100768	0.46 
46.218	-0.1890	0.0488	0.9834	0.1831	1.5869	-1.5259	2.8674	9.2010	123.0579	44.0100	18	-12	103	100769	0.46 
46.296	-0.1470	0.0356	0.9707	-0.8545	1.7090	-0.1221	2.8235	9.1626	122.5690	44.0200	19	-14	105	100769	0.46 
46.447	-0.2026	0.0581	0.9829	0.3662	-3.6011	1.3428	2.8290	9.2010	122.3383	44.0200	18	-13	107	100768	0.46 
46.463	-0.0918	0.0381	0.9580	-0.2441	-2.6855	-0.6104	2.9114	8.7781	122.5031	44.0100	20	-11	103	100768	0.46 
46.620	-0.1719	0.0405	1.0005	-0.2441	0.3662	0.3662	2.8784	8.9978	122.2174	44.0300	19	-16	104	100768	0.46 
46.691	-0.1865	0.0742	0.9668	0.0610	-0.3052	0.7935	2.9333	9.0637	122.0636	44.0200	18	-12	105	100768	0.46 
46.832	-0.1719	0.0615	0.9995	-0.4883	0.4883	-0.6714	2.8894	9.1791	122.0856	44.0400	18	-20	104	100768	0.46 
46.900	-0.1641	0.0654	0.9780	-0.2441	0.1221	0.0000	2.8729	9.2999	122.0581	44.0400	17	-11	107	100768	0.46 
47.043	-0.1597	0.0400	0.9810	-0.4272	1.0986	0.0610	2.8510	9.3329	121.9647	44.0200	17	-14	103	100768	0.46 
47.117	-0.1538	0.0464	0.9888	0.7935	-2.0752	1.2207	2.8949	9.3658	121.8164	44.0400	18	-14	104	100768	0.46 
47.216	-0.1797	0.0566	0.9824	-0.1221	0.3052	0.1831	2.9938	9.2780	121.8494	44.0500	21	-17	102	100769	0.46 
47.278	-0.1621	0.0527	0.9790	0.1831	-2.1973	-0.1221	2.9553	9.2230	121.6901	44.0500	21	-16	103	100769	0.46 
47.492	-0.1655	0.0645	0.9922	0.4272	-1.8311	-1.3428	2.9773	9.1132	121.4923	44.0600	20	-17	102	100768	0.46 
47.627	-0.1523	0.0391	0.9932	-0.3052	-0.7935	0.0000	3.0048	9.0363	121.5582	44.0500	20	-16	103	100768	0.46 
47.680	-0.1797	0.0581	0.9946	0.0610	-0.3662	0.7935	2.9938	9.0692	121.4209	44.0600	15	-13	99	100769	0.46 
47.705	-0.1699	0.0747	0.9873	-0.7324	-0.3662	0.3052	3.0103	8.8770	121.4484	44.0600	17	-17	103	100769	0.46 
47.835	-0.1582	0.0444	0.9844	-0.6104	-0.3662	1.0376	2.9004	8.8000	121.4978	44.0800	22	-17	101	100769	0.46 
47.896	-0.1753	0.0591	0.9966	0.8545	-1.3428	0.9155	2.8894	8.8275	121.2781	44.0800	21	-14	103	100769	0.46 
48.079	-0.1772	0.0562	0.9907	0.3662	-1.9531	0.6714	2.9333	8.7177	121.0199	44.0600	19	-14	101	100769	0.46 
48.142	-0.1494	0.0454	0.9839	0.0000	-0.7324	1.5259	2.9388	8.5638	121.0309	44.0900	18	-14	105	100769	0.46 
48.287	-0.1421	0.0610	0.9756	0.3662	1.1597	-1.2817	2.9718	8.5803	120.8386	44.0800	21	-13	105	100769	0.46 
48.324