StartTime: 2017-07-07 11:39:38.562
Time(s)	ax(g)	ay(g)	az(g)	wx(deg/s)	wy(deg/s)	wz(deg/s)	AngleX(deg)	AngleY(deg)	AngleZ(deg)	T(°)	hx	hy	hz	Pressure(Pa)	Altitude(m) 
134.644	-0.4595	0.0786	0.8755	-0.7324	0.7324	-0.9766	5.0702	27.1802	102.4969	44.6200	72	-14	140	100768	0.46 
134.657	-0.4707	0.0767	0.8760	-0.4272	-0.4883	0.4272	4.9988	27.2241	102.4365	44.6200	76	-14	141	100768	0.46 
134.818	-0.4414	0.0757	0.8882	-1.5869	-0.8545	3.1738	4.9988	27.0978	102.5519	44.6100	72	-14	140	100768	0.46 
134.881	-0.4434	0.0786	0.8755	-1.2817	0.2441	-0.3662	4.8669	27.0154	102.4915	44.6200	71	-13	139	100768	0.46 
135.028	-0.4663	0.0698	0.8745	-0.8545	0.4883	-0.3052	4.7406	27.1527	102.3761	44.6300	72	-15	141	100768	0.46 
135.197	-0.4585	0.0698	0.8745	-0.7324	-0.1831	0.7935	4.6967	27.2241	102.3157	44.6300	75	-10	140	100767	0.46 
135.213	-0.4517	0.0723	0.8740	0.1221	0.3662	-0.3662	4.6857	27.2791	102.2113	44.6200	74	-13	142	100768	0.46 
135.258	-0.4731	0.0884	0.8794	-0.1831	-0.1221	0.3052	4.7241	27.3560	102.1289	44.6100	74	-13	142	100768	0.46 
135.436	-0.4819	0.0786	0.8848	-1.8311	-4.8828	-0.3662	4.6637	27.1857	102.0850	44.6300	71	-13	143	100767	0.46 
135.597	-0.4668	0.0674	0.8877	-1.8921	-10.4980	-0.3662	4.3835	26.4661	101.7554	44.6200	70	-11	142	100767	0.46 
135.652	-0.4604	0.0493	0.9160	0.1831	-21.9116	1.1597	4.1693	24.9884	101.4203	44.6300	68	-15	138	100767	0.46 
135.676	-0.3901	0.0796	0.8916	-2.1973	-44.8608	-1.2817	3.9661	22.0660	101.2775	44.6200	66	-12	134	100767	0.46 
135.831	-0.3911	0.1006	0.9678	-0.6104	-63.6597	1.5259	3.8452	17.3035	101.0028	44.6300	57	-12	125	100767	0.46 
135.884	-0.3623	0.0063	1.0122	2.5024	-95.7031	6.8970	3.7463	9.9097	100.9918	44.6500	44	-12	113	100767	0.46 
136.052	0.0386	0.1675	0.9077	-6.6528	-151.9165	34.9731	4.1364	-3.1476	104.0350	44.6400	13	-16	93	100767	0.46 
136.088	0.0361	-0.0098	1.0083	-12.8174	-103.2715	27.8320	2.6093	-16.2048	111.5277	44.6400	-13	-20	79	100767	0.47 
136.301	0.3936	0.0376	0.7388	-15.9302	-131.7749	38.5132	0.3461	-29.0863	120.3992	44.6500	-52	-17	78	100767	0.47 
136.385	0.7295	-0.1230	0.5874	-19.8975	-151.5503	47.6685	-5.1636	-43.6432	132.7148	44.6400	-84	-14	83	100766	0.47 
136.454	1.1938	-0.3286	0.3457	-13.8550	-148.3765	-30.6396	-9.8163	-59.5844	143.3167	44.6300	-115	-9	99	100766	0.47 
136.675	1.0186	-0.1260	-0.1064	-3.2349	-9.2773	-31.1279	0.9613	-70.8344	136.9885	44.6400	-154	-7	118	100766	0.47 
136.828	0.9087	0.2290	0.2686	-13.3057	35.2783	4.5166	10.3931	-68.3405	133.1158	44.6300	-172	-16	120	100766	0.47 
136.879	0.8936	0.0732	0.4395	-10.3760	61.3403	-4.0283	8.1409	-64.0778	140.2625	44.6400	-164	-16	121	100767	0.47 
136.881	0.7612	0.0269	0.6177	3.6011	-10.3149	-6.8970	5.9985	-61.1499	147.8595	44.6500	-157	-17	110	100767	0.47 
137.033	0.9541	0.1143	0.2881	1.9531	-20.3857	4.0283	7.4597	-63.0725	152.3474	44.6100	-160	-16	114	100767	0.47 
137.117	0.9458	0.0317	0.3984	-1.2817	10.1929	1.0986	7.7454	-63.3911	157.6208	44.6100	-161	-19	113	100766	0.47 
137.199	0.8721	-0.0137	0.4609	-3.2349	9.8877	-1.9531	7.2290	-62.5781	163.0096	44.5900	-159	-16	112	100766	0.47 
137.264	0.9360	-0.0264	0.3936	2.0752	0.4883	-3.3569	7.0422	-62.5397	168.0524	44.5900	-158	-16	111	100766	0.47 
137.457	0.9248	0.0112	0.4092	2.6245	-5.8594	0.7935	7.7179	-62.6276	172.3206	44.5900	-156	-20	114	100767	0.47 
137.632	0.9229	0.0591	0.3960	2.0752	0.4883	3.1128	8.4155	-62.8912	176.4679	44.5900	-161	-17	111	100767	0.47 
137.686	0.9004	0.0269	0.4277	2.4414	1.6479	-2.5635	8.5364	-62.8967	-179.0002	44.5800	-156	-15	110	100767	0.46 
137.696	0.9136	0.0332	0.4307	0.6714	-1.4038	-1.4648	8.8275	-63.0176	-175.0616	44.5600	-158	-20	107	100767	0.47 
137.869	0.9287	0.0464	0.4146	0.6104	0.9766	-0.7324	9.1132	-63.2263	-171.3538	44.5600	-161	-19	110	100767	0.47 
137.927	0.8828	0.0425	0.4443	-0.9155	2.2583	0.6714	9.1406	-63.2483	-167.6239	44.5500	-161	-17	108	100767	0.47 
138.021	0.9077	0.0356	0.4263	-0.4272	1.0986	-0.7935	8.9484	-63.4186	-163.8885	44.5800	-158	-16	108	100767	0.47 
138.121	0.9053	0.0576	0.4268	-0.5493	-0.4272	0.0000	9.3329	-63.4955	-160.9662	44.5500	-160	-17	113	100767	0.47 
138.294	0.9097	0.0308	0.4282	1.0986	-1.5259	1.5869	9.1187	-63.6823	-157.4615	44.5500	-160	-18	110	100767	0.47 
138.434	0.8848	0.0239	0.4033	0.4883	-3.1128	0.4272	8.5748	-64.0173	-153.8031	44.5600	-161	-17	109	100767	0.47 
138.486	0.8716	0.0479	0.4067	0.3662	-2.7466	-0.6104	8.6572	-64.3634	-150.9796	44.5500	-162	-21	111	100767	0.47 
138.537	0.9141	0.0459	0.4102	0.6104	-1.2207	-0.9155	8.6298	-64.6875	-148.2440	44.5600	-158	-19	111	100767	0.46 
138.830	0.9038	0.0415	0.4194	0.7324	-1.4648	-0.7935	8.6902	-64.8248	-145.7062	44.5300	-162	-17	110	100767	0.46 
138.880	0.9272	0.0264	0.4136	-0.2441	0.7935	0.6714	8.4210	-64.8907	-142.9321	44.5500	-161	-18	112	100767	0.47 
138.892	0.9595	0.0615	0.4585	2.9297	5.6763	-5.0049	8.4430	-64.7369	-140.5975	44.5500	-161	-18	110	100767	0.46 
139.115	0.8042	-0.0073	0.4146	1.0986	-19.4092	-4.2725	8.5693	-65.0940	-138.7683	44.5400	-159	-19	106	100767	0.46 
139.278	0.7769	0.0459	0.4023	4.0894	-19.6533	-2.0752	9.3768	-67.0056	-137.5104	44.5500	-167	-19	110	100767	0.46 
139.333	0.9966	0.0278	0.1704	-0.4883	-31.3110	4.3945	11.8158	-69.8950	-138.0597	44.5500	-173	-21	117	100767	0.47 
139.333	1.1128	-0.0649	0.0908	3.6621	32.5317	0.1831	9.5087	-71.2683	-133.7366	44.5300	-175	-17	123	100767	0.46 
139.458	1.1821	0.1919	0.3877	-0.4883	61.5845	7.1411	10.5139	-65.9344	-132.9565	44.5600	-166	-21	114	100767	0.46 
139.534	0.9653	0.0151	0.4258	4.2114	38.4521	13.9771	5.1801	-61.1060	-125.2002	44.5400	-152	-19	104	100767	0.47 
139.684	0.7930	0.0542	0.5186	7.5684	56.1523	12.2070	3.4552	-56.2390	-121.1847	44.5400	-140	-21	100	100767	0.46 
139.758	0.8740	0.0073	0.5811	3.1128	47.9126	-0.2441	2.6697	-51.2347	-118.4821	44.5000	-124	-21	91	100767	0.47 
139.906	0.8247	0.0723	0.6558	2.1973	50.5981	6.5308	2.2028	-46.0382	-116.6418	44.5200	-109	-20	86	100767	0.46 
139.943	0.5742	-0.0361	0.7695	3.7842	62.0117	0.3662	1.9226	-39.7211	-115.0983	44.5200	-88	-23	78	100767	0.47 
140.126	0.6426	0.0347	0.8232	3.4790	72.0825	-16.7847	2.8455	-33.4149	-115.2466	44.4800	-68	-22	76	100767	0.47 
140.285	0.3774	0.0693	0.9194	-0.1831	88.3179	-15.3198	3.5156	-25.2411	-116.0266	44.4700	-50	-24	76	100767	0.46 
140.332	0.2578	0.0796	0.9419	0.9155	88.8062	-8.7891	3.8452	-16.2598	-116.8835	44.4500	-24	-23	77	100767	0.47 
140.360	-0.0225	0.0239	1.0371	5.1880	73.8525	3.1738	4.0320	-7.4323	-117.6141	44.4500	0	-21	85	100767	0.47 
140.505	-0.0273	0.0693	0.8623	10.8032	43.9453	-4.2114	4.7571	-0.5548	-122.2723	44.4400	22	-27	91	100767	0.47 
140.567	-0.2583	0.1475	1.0366	2.8687	52.9785	-2.2583	5.8667	5.8887	-127.6776	44.4100	40	-28	101	100766	0.47 
140.777	-0.3647	0.0249	0.9487	-6.2866	38.0859	-1.0376	6.2622	10.0415	-132.9346	44.4100	55	-23	114	100766	0.47 
140.923	-0.3018	0.0454	0.9419	-5.1270	15.5640	-9.6436	5.8777	13.1012	-139.1693	44.4200	64	-23	122	100767	0.47 
140.936	-0.3833	0.0059	0.9434	-2.1362	8.2397	-8.7280	5.5536	14.9139	-145.5469	44.3900	66	-17	127	100767	0.47 
141.118	-0.3755	-0.0005	0.9824	1.8921	-4.6997	-0.6104	5.6689	15.9631	-151.4520	44.4100	67	-17	127	100767	0.47 
141.184	-0.2178	0.1128	0.9473	0.5493	-0.9766	-2.2583	5.6635	15.2490	-157.1045	44.3800	62	-15	126	100767	0.47 
141.327	-0.3267	0.0278	0.9263	-0.7324	4.0894	0.3052	5.6964	15.6555	-161.9714	44.3900	64	-15	125	100767	0.47 
141.340	-0.3389	0.0483	0.9463	-1.2207	-3.3569	1.1597	5.6140	16.1334	-166.9098	44.3500	64	-20	128	100767	0.47 
141.487	-0.3052	0.0337	0.9609	-0.8545	-4.0894	-1.7090	5.4547	15.8752	-171.6669	44.3800	64	-16	130	100767	0.47 
141.547	-0.2920	0.0332	0.9468	1.0376	-0.5493	-1.1597	5.3394	15.8643	-176.4789	44.3700	66	-20	126	100766	0.47 
141.746	-0.2739	0.0410	0.9385	0.0000	-4.3945	1.7090	5.4053	15.6885	179.4672	44.3600	65	-19	126	100767	0.47 
141.886	-0.2959	0.0425	0.9526	-0.8545	-3.8452	-1.1597	5.2954	15.4688	175.3143	44.3700	63	-15	125	100767	0.47 
141.956	-0.2744	0.0503	0.9404	-1.3428	-4.2114	1.7700	5.1251	15.2051	171.3428	44.3600	62	-17	125	100767	0.47 
141.957	-0.2666	0.0386	0.9482	-0.7935	-6.0425	1.2817	4.9658	14.8975	167.6843	44.3500	63	-18	122	100767	0.46 
142.151	-0.2700	0.0376	0.9565	0.0000	-5.2490	1.3428	4.8230	14.5349	164.1907	44.3700	59	-17	123	100767	0.46 
142.165	-0.2568	0.0488	0.9629	-0.3662	-6.2256	1.0986	4.7626	13.9911	160.8508	44.3600	59	-13	120	100767	0.46 
142.290	-0.1914	0.0200	0.9521	3.4180	-3.7231	0.7324	4.6857	13.3539	157.5604	44.3600	55	-17	117	100767	0.46 
142.486	-0.2764	0.0508	0.9565	0.1221	-6.1035	0.2441	4.8230	13.1342	154.7754	44.3600	56	-15	120	100767	0.47 
142.542	-0.2749	0.0571	0.9883	-2.8076	-12.7563	0.8545	4.6692	12.3431	152.0233	44.3700	55	-18	122	100767	0.47 
142.553	-0.2520	0.0083	0.9829	-2.9907	-28.0762	4.2114	4.3945	10.3656	149.6613	44.3500	53	-16	119	100767	0.47 
142.748	-0.1426	0.0645	0.9971	-2.3804	-40.8936	2.3804	4.1309	6.8500	147.2772	44.3400	43	-17	110	100767	0.47 
142.800	-0.0796	0.0439	1.0103	-1.7090	-41.8091	5.5542	3.8837	2.6202	145.5524	44.3500	32	-18	102	100767	0.47 
142.919	-0.0420	0.0005	0.9541	1.2817	-59.9365	-3.7842	3.6420	-2.6038	144.1077	44.3800	22	-19	99	100766	0.47 
142.996	-0.0488	0.0581	1.1055	0.7935	-51.4526	2.6245	3.8342	-7.3883	144.4427	44.3800	7	-22	86	100766	0.47 
143.136	0.2202	0.0093	1.0059	4.6997	-88.6841	7.7515	4.0100	-15.2216	148.2550	44.3700	-12	-21	81	100766	0.47 
143.193	0.5342	0.0459	0.8105	4.7607	-105.1636	3.2959	4.2847	-25.0104	152.9462	44.3800	-41	-21	75	100766	0.47 
143.291	0.4717	0.0669	0.8101	-4.3335	-104.4922	17.5781	3.8177	-35.5792	159.0930	44.4100	-65	-23	73	100766	0.47 
143.366	0.7705	-0.0864	0.6836	-4.3335	-114.5020	13.7329	2.2192	-46.9995	165.7837	44.4000	-101	-23	79	100766	0.47 
143.562	0.8779	-0.0132	0.4585	-14.0991	-117.2485	6.3477	0.3296	-58.5242	171.9525	44.4000	-124	-15	93	100765	0.47 
143.641	1.3022	0.0332	-0.1357	-6.5308	-86.7310	-55.1758	6.5533	-70.4059	168.5413	44.3800	-155	-17	113	100766	0.47 
143.771	0.6479	-0.0371	0.3027	-1.4038	52.5513	-6.8970	12.0410	-70.0708	167.2394	44.4000	-177	-18	123	100766	0.47 
143.784	1.0234	0.0400	0.2490	5.3101	19.6533	19.1650	10.7611	-68.6151	173.2654	44.3800	-173	-18	122	100766	0.47 
143.998	0.8462	0.1675	0.5161	-20.2637	64.8193	-14.8926	10.2118	-65.8575	178.4564	44.3900	-172	-20	117	100766	0.47 
144.062	0.6665	0.1099	0.5586	-1.6479	11.9019	-4.8828	8.1958	-62.8857	-176.3196	44.3800	-162	-20	108	100767	0.47 
144.196	0.9556	0.1362	0.3652	1.5259	-6.1646	2.8687	9.5856	-63.3472	-173.4851	44.3800	-162	-18	110	100767	0.47 
144.207	0.9287	0.0488	0.4023	2.8076	2.0752	-11.7188	9.2395	-63.7921	-169.1949	44.3600	-162	-17	110	100767	0.47 
144.380	0.9053	0.0508	0.4248	-2.9907	3.4180	0.4272	9.1736	-63.4131	-165.5969	44.3700	-163	-20	109	100767	0.47 
144.569	0.9067	0.0430	0.4316	-1.0376	3.8452	-1.4648	9.3604	-62.9626	-162.5317	44.3700	-164	-19	109	100767	0.47 
144.625	0.9155	0.0386	0.4507	-0.7935	2.6245	2.8076	9.2725	-62.7924	-159.1534	44.3600	-162	-20	109	100767	0.47 
144.725	0.8892	0.0566	0.4497	-0.5493	2.2583	-2.6855	9.1406	-62.6880	-155.9454	44.3600	-161	-20	110	100767	0.47 
144.742	0.8916	0.0596	0.4473	-0.8545	-0.4883	-0.9766	9.1736	-62.6550	-153.0945	44.3700	-159	-19	109	100767	0.47 
144.991	0.8994	0.0449	0.4482	0.2441	0.4883	0.9766	9.0472	-62.6990	-150.1501	44.3700	-164	-16	109	100767	0.47 
145.152	0.8940	0.0420	0.4482	-0.1221	0.1831	-0.2441	8.8605	-62.7264	-147.2717	44.3700	-159	-21	108	100767	0.47 
145.211	0.8721	0.0708	0.4224	-0.9155	-1.0986	0.4883	8.9099	-62.8363	-144.8877	44.3700	-160	-20	108	100767	0.47 
145.212	0.8940	0.0415	0.4434	0.4883	0.7935	0.2441	8.6407	-62.8253	-142.2729	44.3700	-159	-21	109	100767	0.46 
145.372	0.9111	0.0435	0.4585	0.7324	-4.5776	-0.6104	8.4924	-62.8638	-139.8615	44.3800	-161	-20	107	100767	0.46 
145.448	0.8975	0.0645	0.4185	-0.1831	-4.2114	0.1831	8.7451	-63.4351	-137.9279	44.3700	-161	-19	106	100767	0.47 
145.588	0.8936	0.0454	0.4370	0.3662	-2.9297	1.0376	8.6792	-63.7262	-135.8514	44.3700	-161	-21	108	100767	0.47 
145.600	0.9238	0.0288	0.4185	0.0000	-0.6714	1.6479	8.5199	-64.0228	-133.7805	44.3700	-164	-18	106	100767	0.47 
145.813	0.9077	0.0474	0.4263	0.6104	-2.6855	0.6714	8.0530	-64.2920	-131.5118	44.3600	-163	-21	109	100767	0.46 
145.829	0.9077	0.0483	0.4248	0.2441	-2.9907	1.2207	7.9102	-64.6051	-129.6277	44.3800	-162	-22	108	100767	0.46 
146.008	0.9043	0.0537	0.4238	-0.4883	-2.2583	1.8921	7.6849	-64.9017	-127.8369	44.4000	-164	-21	106	100768	0.46 
146.160	0.9121	0.0073	0.4253	0.8545	-2.1973	0.0610	6.9269	-65.1215	-125.6067	44.3900	-163	-18	109	100768	0.46 
146.211	0.9287	0.0317	0.4570	-2.6855	1.2207	-1.8921	6.9049	-65.2094	-124.3048	44.3900	-163	-19	114	100767	0.46 
146.253	0.8540	0.0732	0.3896	0.9155	-7.8125	-3.0518	8.6902	-65.7147	-124.8651	44.4100	-167	-18	113	100768	0.46 
146.417	0.9468	0.1265	0.4014	-1.1597	-10.3149	3.6011	9.5306	-66.8573	-124.3542	44.4000	-167	-21	113	100767	0.47 
146.579	0.9243	0.0039	0.3794	1.0376	-12.3901	11.2305	7.2400	-68.2251	-120.8057	44.4000	-169	-20	115	100767	0.46 
146.584	0.9307	0.0010	0.3667	4.8828	-5.3101	0.3052	5.4602	-69.7412	-117.6141	44.4000	-168	-17	117	100767	0.46 
146.817	1.1479	0.0615	0.2485	6.8970	-8.2397	-3.2959	7.3169	-71.3068	-118.0316	44.3800	-173	-19	121	100767	0.47 
146.960	1.0679	0.0117	0.2378	1.0376	32.8369	-1.1597	7.9980	-69.2413	-117.2516	44.3800	-169	-21	118	100768	0.46 
147.015	0.8706	0.0688	0.3975	-1.8311	43.8232	7.0190	5.1031	-65.2039	-113.1482	44.3800	-162	-20	107	100768	0.46 
147.028	0.8999	-0.0186	0.5210	-3.6011	42.6025	6.4697	2.6642	-60.8862	-110.0830	44.3900	-150	-19	102	100768	0.46 
147.212	0.6567	0.0049	0.5820	3.7842	50.5371	-9.3994	2.2083	-56.3873	-109.0393	44.4000	-136	-18	93	100768	0.46 
147.264	0.9409	0.0430	0.5957	3.9063	49.1943	-0.1221	2.2632	-51.1194	-108.1879	44.3900	-124	-19	91	100768	0.46 
147.404	0.7764	-0.0479	0.7905	-4.6387	91.2476	-20.0806	3.0707	-43.3685	-108.8086	44.3700	-109	-18	84	100768	0.46 
147.439	0.4019	0.0396	0.8657	-3.4180	87.4634	-5.6763	3.3344	-32.8436	-109.9182	44.3800	-88	-25	78	100768	0.46 
147.665	0.4253	-0.0005	0.8896	4.6997	76.1108	-11.9019	3.6475	-24.8126	-110.0555	44.3600	-58	-22	78	100769	0.46 
147.682	0.2124	0.0601	0.9546	3.4790	71.6553	-11.1694	3.9935	-17.2321	-110.7916	44.3500	-38	-23	73	100768	0.46 
147.833	0.1172	0.0444	0.9971	4.8218	98.6328	4.3335	4.0375	-8.8385	-111.0828	44.3700	-13	-25	81	100768	0.46 
148.002	-0.1636	0.1182	0.9790	-0.6714	77.8809	0.7935	4.6143	-0.8020	-113.9008	44.3800	9	-23	86	100768	0.46 
148.006	-0.3164	0.1416	0.9678	-0.0610	73.9136	-4.6997	4.8724	6.5533	-118.9600	44.3500	33	-24	98	100768	0.46 
148.060	-0.2344	0.0669	0.9160	-5.7373	41.1377	8.6060	5.4437	11.9476	-123.9917	44.3500	48	-22	112	100768	0.46 
148.256	-0.4048	0.0942	0.9995	3.4790	24.5972	-22.3999	5.3229	16.0455	-130.6055	44.3400	60	-19	123	100768	0.46 
148.334	-0.3877	-0.0005	0.8521	-8.2397	27.0996	4.8218	5.0812	18.6493	-136.9281	44.3400	65	-17	131	100768	0.46 
148.474	-0.4473	0.0972	0.9600	0.7935	21.4233	-15.1367	4.6033	21.6156	-143.7067	44.3200	72	-14	135	100768	0.46 
148.487	-0.4814	0.0791	0.8335	-4.3335	15.3809	6.3477	4.5374	23.4668	-149.7162	44.2800	71	-13	145	100768	0.46 
148.617	-0.5098	-0.0298	0.8706	-1.9531	-2.7466	-1.9531	4.6088	24.4391	-154.5007	44.2600	77	-12	143	100768	0.46 
148.685	-0.4497	0.0234	0.8638	-1.6479	-4.5776	-1.4038	4.4220	24.5380	-160.2466	44.2700	79	-14	145	100767	0.46 
148.795	-0.4663	0.0376	0.8955	-1.2817	-4.3945	-0.2441	4.3066	24.2523	-165.5859	44.2600	78	-12	143	100767	0.47 
148.899	-0.4375	0.0078	0.8960	-1.9531	-5.3711	1.7700	4.2242	23.9502	-170.4199	44.2700	71	-13	144	100767	0.47 
149.009	-0.4185	0.0088	0.8867	-1.7700	-4.3945	0.9155	4.0814	23.7195	-175.2045	44.2600	75	-12	143	100767	0.47 
149.101	-0.4336	0.0366	0.9077	-0.3052	-0.0610	-5.5542	3.6749	23.8239	179.7198	44.2600	71	-13	145	100766	0.47 
149.230	-0.4321	0.0117	0.8936	-0.4272	-0.1831	-1.8311	3.5486	24.0546	175.1495	44.2500	73	-11	142	100766	0.47 
149.298	-0.4297	-0.0015	0.8867	0.0000	-1.5259	1.5869	3.4717	24.1644	170.8759	44.2400	73	-8	143	100766	0.47 
149.451	-0.4072	0.0068	0.9092	1.5259	2.5635	0.3662	3.4332	24.2633	166.8439	44.2400	74	-9	147	100766	0.47 
149.512	-0.4136	0.0254	0.8760	1.0376	-2.5024	2.5635	3.6255	24.2578	163.1085	44.2400	72	-14	146	100766	0.47 
149.671	-0.4434	0.0190	0.8960	0.2441	-0.8545	0.0000	3.6804	24.3018	159.5874	44.2400	73	-13	145	100765	0.47 
149.841	-0.4399	0.0229	0.9004	0.5493	-1.8311	0.3052	3.6584	24.2908	156.1761	44.2500	72	-14	141	100766	0.47 
149.906	-0.4238	0.0200	0.9023	0.3662	-2.1973	0.4272	3.6255	24.2249	152.9626	44.2400	76	-12	141	100766	0.47 
150.023	-0.4443	-0.0132	0.9189	2.8076	-3.2959	-4.5166	3.5486	24.1864	149.5898	44.2400	73	-11	146	100766	0.47 
150.038	-0.4741	0.0522	0.9199	-0.3662	-10.0098	0.0610	3.5706	23.6371	146.5686	44.2300	69	-10	141	100766	0.47 
150.220	-0.2749	0.0000	0.9443	0.8545	-22.8271	3.8452	3.6584	21.5662	144.0253	44.2500	67	-11	139	100766	0.47 
150.286	-0.4253	-0.0635	0.9365	4.0283	-10.1929	2.3804	4.0814	20.5829	142.3169	44.2600	65	-13	134	100766	0.47 
150.461	-0.3936	0.0620	0.9648	6.5308	-35.4614	6.0425	5.0043	18.5010	140.4327	44.2400	63	-15	131	100766	0.47 
150.476	-0.3145	0.1675	0.8989	7.9956	-58.8989	24.2920	6.4929	13.9142	139.4989	44.2500	56	-16	120	100766	0.47 
150.642	-0.2798	0.0488	0.9863	-1.5259	-75.7446	16.9067	6.7401	8.0420	139.1858	44.2300	52	-21	108	100766	0.47 
150.700	-0.1089	0.1021	0.9741	-17.4561	-109.3140	11.9019	6.0260	-1.1316	138.8617	44.2600	32	-27	92	100766	0.47 
150.835	0.1602	-0.1333	0.9434	-9.7046	-151.0010	-10.2539	4.8065	-13.8867	138.4387	44.2700	1	-27	80	100766	0.47 
150.901	0.5649	0.5474	0.5752	18.1274	-185.7910	29.0527	7.1082	-30.4266	139.1693	44.2700	-56	-22	75	100766	0.47 
151.068	0.7715	0.0547	0.4209	-14.8926	-165.5884	46.8140	4.2957	-47.8784	148.0463	44.2600	-103	-20	79	100766	0.47 
151.133	1.4087	-0.2749	0.1802	-11.9629	-125.9155	-4.5776	2.7081	-62.3584	154.1107	44.2500	-141	-13	99	100766	0.47 
151.235	1.2900	0.0752	0.1338	-5.6763	31.2500	-15.7471	14.5074	-67.6813	146.2335	44.2300	-168	-19	118	100766	0.47 
151.293	0.9360	0.2100	0.2021	-3.7842	-11.6577	15.8081	13.7219	-64.9127	151.9354	44.2400	-173	-23	116	100766	0.47 
151.492	1.0264	-0.0107	0.3506	0.2441	27.2827	-15.4419	13.5791	-63.4790	157.1100	44.2500	-167	-17	117	100766	0.47 
151.656	0.8608	-0.0488	0.5488	-0.8545	5.2490	7.5073	11.0303	-61.3257	164.2621	44.2300	-163	-21	109	100767	0.47 
151.713	0.8418	0.1157	0.4272	5.3101	-4.6387	-8.3008	11.8707	-61.9684	168.5577	44.2200	-160	-21	107	100767	0.47 
151.725	0.9243	0.1094	0.4282	4.6997	-5.1880	-5.4321	12.7991	-62.5397	172.4194	44.2300	-162	-19	110	100767	0.47 
151.845	0.9019	0.0732	0.4194	-4.3335	0.7324	5.7983	12.7551	-63.1000	176.9073	44.2200	-164	-22	112	100767	0.47 
151.925	0.8989	-0.0269	0.4312	-0.0610	2.5024	0.1221	11.7169	-63.2538	-178.2147	44.2100	-163	-18	109	100767	0.47 
152.095	0.9058	-0.0073	0.4556	-0.7324	4.1504	5.0659	11.3379	-63.1219	-173.8751	44.2200	-160	-17	109	100767	0.46 
152.254	0.8779	0.0498	0.4272	2.6245	4.6997	-5.4932	11.9586	-62.9077	-170.6506	44.2200	-162	-20	108	100767	0.46 
152.306	0.8608	0.1372	0.4355	-2.7466	3.2959	-1.2817	13.5242	-62.2485	-168.6072	44.2200	-162	-23	108	100767	0.46 
152.353	0.9165	0.0840	0.4336	-1.1597	3.0518	-0.7935	13.2550	-62.1497	-165.1245	44.2000	-162	-23	110	100768	0.46 
152.552	0.8833	0.0293	0.4531	0.3052	2.1973	0.6104	12.6892	-62.0508	-161.3617	44.1900	-162	-20	106	100768	0.46 
152.640	0.8994	0.0796	0.4385	0.5493	0.1831	-1.0986	12.4585	-62.1002	-158.0219	44.2100	-161	-23	107	100768	0.46 
152.711	0.8960	0.0737	0.4473	-0.5493	-2.0142	-0.7324	12.3816	-62.1661	-155.1050	44.2100	-164	-25	109	100768	0.46 
152.931	0.8979	0.0522	0.4458	-0.9155	-0.4272	1.4648	11.8817	-62.2540	-151.9409	44.1900	-161	-23	107	100768	0.46 
153.088	0.8887	0.0537	0.4541	-0.1831	0.0000	-0.2441	11.5741	-62.3419	-149.0735	44.2000	-161	-18	104	100768	0.46 
153.149	0.8950	0.0649	0.4502	-0.2441	0.1831	0.3662	11.4093	-62.4463	-146.4038	44.2200	-163	-19	107	100768	0.46 
153.149	0.8970	0.0664	0.4580	-1.1597	0.3662	0.5493	11.1292	-62.4683	-143.8110	44.2200	-165	-21	109	100768	0.46 
153.257	0.9077	0.0444	0.4487	-0.4272	0.0000	0.4272	10.7941	-62.5397	-141.3501	44.2000	-161	-21	110	100768	0.46 
153.328	0.8853	0.0688	0.4575	-0.6104	1.0376	-0.7935	10.6512	-62.6221	-139.1803	44.2200	-160	-19	107	100768	0.46 
153.533	0.8950	0.0586	0.4521	0.1831	0.3052	0.0000	10.4315	-62.6770	-137.0105	44.2200	-159	-23	106	100768	0.46 
153.701	0.8936	0.0605	0.4541	0.0000	-0.4883	-0.1221	10.2448	-62.6990	-134.9506	44.2300	-158	-21	107	100768	0.46 
153.763	0.8940	0.0649	0.4561	-0.0610	0.4883	0.2441	10.1184	-62.7319	-133.1104	44.2300	-160	-21	107	100767	0.46 
153.856	0.8628	0.0737	0.4380	-2.4414	0.7324	0.0610	9.5361	-62.8363	-131.0010	44.2200	-160	-22	107	100767	0.46 
153.914	0.8892	0.0444	0.4595	-0.1221	1.7700	-0.3662	9.1406	-62.7924	-129.1772	44.2400	-157	-17	107	100767	0.47 
153.946	0.9019	0.0532	0.4575	-0.1831	0.4272	-0.3662	8.9594	-62.7704	-127.4908	44.2500	-159	-19	108	100767	0.47 
154.136	0.8931	0.0605	0.4580	-0.2441	0.7935	-0.3662	8.8550	-62.7209	-125.9967	44.2400	-159	-21	110	100766	0.47 
154.302	0.9180	0.0562	0.4990	-2.4414	-0.1221	-2.3804	8.7561	-62.6605	-124.6454	44.2400	-160	-19	111	100766	0.47 
154.351	0.8647	0.0488	0.4878	-2.6245	0.4883	2.6855	8.6957	-62.7759	-123.6786	44.2700	-159	-21	108	100767	0.47 
154.509	0.8613	0.0244	0.4380	-0.3662	-5.4932	4.2114	7.6794	-63.5999	-121.4209	44.2300	-161	-18	107	100766	0.47 
154.566	0.9941	-0.0767	0.3867	10.5591	-31.4941	-12.1460	6.4270	-65.4620	-118.5645	44.2500	-162	-20	108	100766	0.47 
154.693	1.0210	0.0820	0.2983	11.0474	-10.8643	-3.7231	7.1356	-68.7579	-117.5427	44.2400	-167	-18	114	100767	0.47 
154.772	0.9346	0.1045	0.2441	-3.9673	40.1611	2.3193	9.5032	-68.2910	-118.7073	44.2300	-166	-19	116	100766	0.47 
154.887	0.8691	-0.0806	0.5420	-6.5918	56.7017	22.5830	4.6857	-63.7701	-112.7966	44.2400	-161	-19	112	100767	0.47 
154.965	0.8130	0.0322	0.6226	-9.1553	53.2227	21.5454	-0.0385	-58.7054	-107.5067	44.2500	-144	-17	104	100767	0.47 
155.082	0.8809	-0.1763	0.6074	2.6855	57.8613	-2.4414	-3.0817	-53.8770	-103.8043	44.2500	-126	-13	101	100767	0.47 
155.152	0.5122	-0.0195	0.6812	-3.4180	58.7769	-6.4697	-2.1588	-48.3728	-104.5514	44.2400	-110	-13	92	100766	0.47 
155.344	0.6006	0.0142	0.7822	-0.7935	44.1895	-16.2964	0.2087	-43.2642	-107.0288	44.2300	-99	-14	88	100766	0.47 
155.513	0.6064	-0.0522	0.7808	2.6855	42.4194	-12.0850	1.3348	-39.3420	-108.0341	44.2200	-90	-15	84	100767	0.47 
155.595	0.6318	-0.0537	0.8804	7.1411	63.0493	2.2583	1.5656	-34.0192	-107.2705	44.2100	-81	-16	83	100767	0.47 
155.687	0.4341	0.0259	0.8711	3.9673	81.7261	0.0000	1.6260	-26.9275	-105.9247	44.2300	-58	-17	76	100768	0.46 
155.735	0.3433	0.0674	0.9805	5.1880	81.1768	8.7280	2.1973	-17.7649	-106.3202	44.2300	-33	-19	82	100767	0.46 
155.778	0.1963	0.0181	0.9805	1.0986	63.0493	-0.3662	2.3621	-11.0138	-106.2213	44.2200	-10	-21	81	100768	0.46 
156.096	-0.0234	0.0396	0.9736	-1.6479	67.9932	-0.6104	2.4225	-4.1034	-109.2480	44.2200	8	-23	89	100768	0.46 
156.102	-0.3242	0.0029	0.9541	-3.7842	70.8008	-10.0708	2.3621	3.5211	-114.7247	44.2100	34	-24	101	100768	0.46 
156.167	-0.2944	-0.0107	0.9272	5.0049	39.9780	11.4746	3.3344	9.1626	-120.5914	44.2300	53	-20	115	100767	0.46 
156.184	-0.3564	0.0415	0.8521	3.1738	35.3394	-24.7803	4.0265	13.2990	-127.7325	44.2200	63	-19	120	100768	0.46 
156.388	-0.3472	0.0313	0.9287	1.6479	4.3945	0.0610	4.3341	16.9849	-134.2529	44.2300	66	-17	129	100767	0.46 
156.565	-0.4038	0.0264	0.9346	-0.9766	2.2583	-0.7324	4.5868	17.6276	-140.0262	44.2500	68	-15	131	100767	0.46 
156.569	-0.3188	0.0269	0.9185	3.1738	0.6714	1.5869	4.7626	17.8748	-145.9094	44.2400	72	-15	134	100767	0.47 
156.620	-0.4141	0.0596	0.9380	2.8076	-1.7700	-2.9907	5.0592	18.3032	-151.5564	44.2300	72	-17	135	100767	0.46 
156.762	-0.3550	0.0254	0.9375	4.5166	7.9346	-1.1597	5.4382	18.7811	-157.0441	44.2300	72	-17	134	100767	0.47 
156.818	-0.3862	0.0376	0.9199	2.7466	-5.0049	4.1504	5.9821	19.2700	-161.8781	44.2400	72	-19	132	100767	0.47 
157.030	-0.3511	0.0630	0.9253	2.3804	-3.7231	0.6714	6.3171	18.9899	-166.5198	44.2300	74	-19	134	100767	0.47 
157.092	-0.3496	0.0615	0.9321	1.6479	-3.5400	-0.6104	6.4819	18.8965	-171.2054	44.2400	74	-18	132	100767	0.46 
157.227	-0.3457	0.0630	0.9082	1.5869	-4.5776	-0.0610	6.6083	18.4625	-175.8911	44.2400	69	-21	129	100767	0.46 
157.314	-0.3579	0.0776	0.9526	0.9766	-1.2817	1.8921	6.7236	18.5559	-179.9615	44.2500	72	-22	132	100767	0.46 
157.366	-0.3472	0.0645	0.9331	0.1221	0.0610	-0.2441	6.7511	18.6328	176.0614	44.2300	70	-22	127	100767	0.46 
157.513	-0.3340	0.0732	0.9248	0.1831	1.0986	-1.8311	6.6907	18.8141	172.0953	44.2500	69	-19	130	100767	0.46 
157.576	-0.3467	0.0801	0.9385	0.4883	1.9531	0.6104	6.6632	19.0942	168.3765	44.2400	69	-20	126	100767	0.46 
157.743	-0.3569	0.0767	0.9268	0.0000	-0.7324	1.1597	6.6412	19.2975	164.9542	44.2400	72	-18	127	100767	0.47 
157.815	-0.3530	0.0786	0.9258	-0.9766	-3.1738	-0.0610	6.5808	19.2316	161.6913	44.2500	69	-22	130	100767	0.46 
157.961	-0.3398	0.0894	0.9531	-3.5400	-6.2256	-4.3945	6.3062	18.9349	158.4448	44.2600	71	-20	129	100767	0.47 
157.979	-0.3604	0.0493	0.9419	-2.7466	-7.3853	-0.1221	5.7843	18.5229	155.1105	44.2600	67	-19	126	100767	0.46 
158.156	-0.3154	0.0640	0.9375	-2.3193	-11.9019	2.1362	5.5096	17.6440	152.2705	44.2800	65	-16	129	100767	0.46 
158.206	-0.3945	0.0552	0.9907	-5.0049	-21.6064	-5.1880	5.1196	16.3092	149.4745	44.2600	65	-17	125	100767	0.47 
158.333	-0.2544	0.0122	0.9067	-3.2959	-38.6963	15.0146	4.8230	13.2495	146.9861	44.2500	59	-20	117	100767	0.47 
158.419	-0.1992	0.0630	0.9990	-2.1973	-44.9829	3.9673	4.5099	9.1187	144.9976	44.2700	51	-19	111	100767	0.47 
158.540	-0.0742	0.0664	0.9712	-3.8452	-52.4292	10.4370	4.2957	4.5813	143.4430	44.2700	40	-20	107	100766	0.47 
158.618	0.0132	-0.0703	0.9849	0.7935	-63.7207	5.1270	3.9661	-0.9174	141.8060	44.2900	25	-20	96	100766	0.47 
158.813	0.1523	0.0073	1.0078	-2.6855	-99.3652	16.2964	4.0210	-9.1187	142.3499	44.3000	6	-22	83	100766	0.47 
158.949	0.2690	0.1025	0.8589	1.8921	-109.2529	10.7422	3.9111	-19.6820	146.9092	44.2900	-22	-21	78	100766	0.47 
159.009	0.3193	0.0488	1.0151	2.0752	-95.3369	8.5449	3.8068	-30.2179	152.3859	44.3000	-49	-20	73	100766	0.47 
159.011	0.6523	0.1421	0.7437	3.1128	-126.9531	23.2544	3.6639	-41.9897	157.9614	44.3200	-86	-24	77	100766	0.47 
159.194	0.8301	-0.0542	0.3403	-6.6528	-105.9570	18.5547	1.7413	-53.6078	165.2838	44.3100	-118	-21	86	100766	0.47 
159.214	0.9390	-0.0435	0.2607	-12.1460	-83.8623	-20.3857	0.8679	-63.0560	170.1398	44.3000	-140	-17	96	100766	0.47 
159.384	1.4316	-0.0435	-0.0366	-9.2773	-6.7749	-17.4561	8.3386	-69.9005	166.3605	44.3200	-159	-15	115	100767	0.47 
159.453	0.7573	-0.0469	0.5625	-5.4932	26.5503	-2.3193	6.4764	-65.8795	172.4084	44.3200	-166	-16	117	100767	0.46 
159.590	0.9307	0.0229	0.3779	-6.3477	29.6021	-15.3198	7.4268	-64.4019	175.1111	44.3100	-164	-17	109	100768	0.46 
159.619	0.8071	0.0376	0.5757	7.3853	6.7749	5.1270	8.0145	-63.0450	178.9069	44.3100	-160	-18	109	100768	0.46 
159.840	0.8721	0.1689	0.4058	-2.7466	-2.9297	-5.0049	8.5748	-63.0286	-177.0447	44.3000	-161	-20	110	100768	0.46 
160.002	0.9478	0.0005	0.4180	-2.3804	3.4180	7.5073	8.1409	-63.1110	-172.7875	44.3100	-162	-22	108	100768	0.46 
160.054	0.9233	0.0498	0.4214	-5.3711	4.3335	0.0610	7.1301	-63.3362	-168.3105	44.3000	-158	-19	109	100768	0.46 
160.067	0.8779	-0.0552	0.4658	6.6528	2.7466	1.4038	6.2073	-63.1934	-163.7732	44.3000	-157	-16	111	100768	0.46 
160.205	0.8623	0.0664	0.4155	6.3477	2.8687	-4.7607	6.7017	-63.1824	-159.9664	44.2900	-159	-17	103	100767	0.46 
160.273	0.8867	0.1343	0.4561	0.2441	4.0894	-4.1504	8.4265	-62.6221	-158.1207	44.3000	-160	-19	106	100767	0.46 
160.383	0.9199	0.0010	0.4531	1.7090	-3.7231	-5.7983	8.5364	-62.4298	-155.1270	44.3200	-158	-19	102	100767	0.46 
160.588	0.9048	0.0127	0.4316	-1.7700	-2.3193	0.1831	8.6298	-62.5232	-152.4957	44.3100	-157	-21	102	100767	0.46 
160.651	0.8853	0.0508	0.4570	1.4648	-2.5024	-0.3052	8.9539	-62.6935	-150.0897	44.3000	-158	-23	104	100767	0.47 
160.774	0.9131	0.0659	0.4668	1.3428	-1.4648	0.0000	9.1956	-62.9572	-147.6233	44.3100	-160	-24	105	100767	0.47 
160.855	0.8896	0.0493	0.4419	-0.1831	-2.8076	0.3052	9.2065	-63.2922	-145.1294	44.3000	-160	-23	108	100767	0.47 
161.051	0.9023	0.0459	0.4282	-0.6104	-2.0142	0.0000	9.1406	-63.6218	-142.8223	44.3100	-160	-23	106	100767	0.47 
161.106	0.9009	0.0435	0.4189	-0.9766	1.4038	0.2441	9.0747	-63.8525	-140.6030	44.3200	-161	-25	103	100767	0.46 
161.256	0.9150	0.0547	0.4287	-1.2207	8.1787	-2.1362	8.9648	-63.5724	-138.4772	44.3100	-162	-22	106	100767	0.47 
161.268	0.8799	0.0581	0.4346	0.0000	-2.1973	1.0986	9.2834	-63.1055	-136.8237	44.3200	-160	-23	105	100767	0.47 
161.407	0.8848	0.0674	0.4507	-0.1831	2.0752	1.6479	9.2120	-62.9462	-134.8682	44.3000	-158	-26	103	100767	0.47 
161.479	0.8867	0.0601	0.4609	-0.2441	0.0610	0.6714	8.8385	-62.8583	-132.7203	44.3200	-159	-20	103	100767	0.46 
161.569	0.9033	0.0527	0.4658	0.6714	-6.1035	-0.1831	8.6902	-63.2208	-130.9131	44.3200	-158	-22	107	100768	0.46 
161.654	0.9043	0.0469	0.4419	-0.7935	-4.0894	0.7324	8.5364	-63.5504	-129.2267	44.3200	-159	-19	107	100768	0.46 
161.871	0.8911	0.0508	0.4268	-0.6714	-3.1738	0.9155	8.4869	-63.8745	-127.7325	44.3200	-161	-23	108	100768	0.46 
161.879	0.9136	0.0381	0.4385	0.6714	-2.1973	1.2817	8.2617	-64.2151	-126.1285	44.3100	-162	-22	106	100768	0.46 
162.043	0.9009	0.0513	0.4351	0.0000	-1.6479	0.9155	8.1573	-64.4183	-124.6893	44.3400	-160	-23	104	100768	0.46 
162.180	0.9067	0.0518	0.4263	0.0000	-1.2817	0.0610	8.0969	-64.5721	-123.4039	44.3200	-162	-23	103	100769	0.46 
162.252	0.9253	0.0493	0.4219	-0.4883	3.7842	7.4463	7.7124	-64.6985	-121.7889	44.3400	-163	-23	107	100768	0.46 
162.293	0.8965	0.0479	0.4292	-1.0986	3.4790	-1.8921	6.9543	-64.4128	-120.0476	44.3300	-161	-23	106	100769	0.46 
162.477	0.9009	0.0542	0.4282	-0.1221	-1.3428	-0.9155	7.1191	-64.2865	-119.2566	44.3300	-159	-22	105	100769	0.46 
162.608	0.9023	0.0439	0.4375	0.0000	-0.1221	-0.3662	7.1246	-64.3085	-118.3447	44.3500	-158	-23	105	100769	0.46 
162.673	0.9028	0.0439	0.4351	0.0000	-0.0610	-0.8545	7.0477	-64.3085	-117.3944	44.3500	-160	-24	104	100769	0.46 
162.866	0.8901	0.0425	0.4502	-0.2441	-4.0894	2.4414	6.8829	-64.3469	-116.3123	44.3600	-161	-21	106	100769	0.46 
162.933	0.9102	0.0317	0.4331	-1.2817	0.0610	0.4272	6.6357	-64.3030	-115.2905	44.3400	-161	-20	104	100769	0.46 
163.034	0.9263	0.0591	0.4395	-0.2441	0.1221	-1.8921	6.4215	-64.3304	-114.4611	44.3600	-159	-23	109	100769	0.46 
163.201	0.9258	0.1294	0.4072	-1.3428	-5.5542	-6.4697	7.6410	-64.6765	-115.0763	44.3500	-160	-21	105	100769	0.46 
163.269	0.9741	0.0342	0.4414	-0.4272	-7.9956	9.8267	5.6470	-65.4456	-112.4121	44.3600	-162	-22	111	100769	0.46 
163.283	0.7837	-0.1543	0.4756	1.2207	-16.0522	21.7285	0.9668	-66.4783	-106.8311	44.3700	-162	-18	114	100769	0.46 
163.446	1.0059	0.0894	0.3672	-5.6152	24.7803	10.3760	0.9283	-67.3462	-105.7214	44.3700	-160	-17	114	100769	0.46 
163.620	1.0620	-0.2085	0.2358	3.1738	16.9067	16.0522	-2.2797	-66.7529	-101.7444	44.3500	-155	-16	109	100769	0.46 
163.681	0.9512	-0.2393	0.4927	7.9346	42.6025	2.9907	-4.3341	-62.8748	-98.6792	44.3500	-145	-13	106	100769	0.46 
163.703	0.9468	0.1250	0.4795	-2.8687	55.2368	0.8545	-2.6862	-57.4915	-100.0250	44.3500	-134	-16	97	100769	0.46 
163.887	1.0078	-0.1216	0.6245	3.3569	69.6411	-8.1787	-1.2085	-51.4050	-100.9094	44.3600	-119	-17	93	100769	0.46 
164.031	0.6836	-0.1099	0.6260	-4.5776	94.1162	-4.6387	0.3571	-43.5663	-103.0627	44.3600	-107	-18	88	100769	0.46 
164.099	0.6978	0.0142	0.8491	1.1597	128.5400	-25.2075	1.4502	-33.5742	-104.5020	44.3500	-80	-19	84	100769	0.46 
164.126	0.2837	0.0215	0.8931	2.1362	109.4360	-19.2261	2.5873	-21.6486	-106.4575	44.3500	-50	-20	79	100769	0.46 
164.295	0.1401	0.0791	0.9023	0.4883	93.9941	13.7329	2.9004	-11.3599	-107.4902	44.3300	-16	-21	83	100769	0.46 
164.318	-0.1299	0.0273	0.9219	1.6479	82.1533	1.5869	3.0707	-2.2522	-110.5994	44.3200	11	-22	90	100768	0.46 
164.502	-0.2466	0.1450	0.9614	8.7891	72.4487	15.9912	4.3011	5.8832	-114.8785	44.3300	35	-25	104	100769	0.46 
164.535	-0.3618	0.0347	0.9810	10.7422	38.8794	30.3345	6.0699	11.6345	-117.6141	44.3200	60	-25	116	100769	0.46 
164.698	-0.4648	0.1064	0.8901	2.9907	13.4888	-21.7285	7.1246	14.2822	-124.4312	44.3100	74	-26	124	100769	0.46 
164.740	-0.4019	0.1040	0.9526	-2.6855	-1.0376	-5.3101	7.2015	15.5402	-131.1877	44.3200	77	-24	125	100769	0.46 
165.033	-0.3364	0.0908	0.9878	-1.0376	-4.3335	-2.5024	7.1466	15.1776	-137.9828	44.3400	72	-23	123	100769	0.46 
165.092	-0.2798	0.0693	0.9424	-3.1128	-2.5024	-1.2817	6.8500	14.8645	-144.0143	44.3300	71	-20	128	100769	0.46 
165.105	-0.2861	0.0659	0.9346	-2.0752	2.0752	0.3052	6.5588	15.1337	-149.4965	44.3300	71	-21	128	100769	0.46 
165.257	-0.2871	0.0566	0.9351	-2.6855	7.2021	-2.5024	6.3721	15.7819	-154.8468	44.3200	69	-22	129	100769	0.46 
165.327	-0.3320	0.0615	0.9277	-1.4648	7.0801	-3.5400	6.1523	16.7432	-160.1202	44.3300	69	-21	128	100769	0.46 
165.451	-0.3687	0.0596	0.9521	-0.1221	10.8032	2.1973	6.1249	17.9901	-165.0366	44.3500	73	-22	128	100769	0.46 
165.526	-0.3257	0.0596	0.9214	-1.0376	3.8452	-8.9722	5.9216	18.7372	-169.9585	44.3600	74	-21	131	100769	0.46 
165.705	-0.3618	0.0420	0.9229	-1.7700	4.4556	-1.8921	5.6030	19.4623	-174.9683	44.3500	73	-19	135	100769	0.46 
165.760	-0.3521	0.0542	0.9272	-2.0752	2.1362	1.5869	5.3833	19.9786	-179.4012	44.3500	74	-18	135	100769	0.46 
165.858	-0.3877	0.0649	0.9292	-5.6152	-7.9346	1.3428	4.8010	19.8633	176.2317	44.3700	75	-16	133	100769	0.46 
165.938	-0.3745	-0.0337	0.9141	2.1362	-5.0049	-0.9766	4.6582	19.4897	172.0734	44.3600	72	-20	137	100769	0.46 
166.065	-0.3223	0.0615	0.9224	3.1738	-4.1504	1.0376	4.7955	19.1876	168.1073	44.3700	76	-18	136	100768	0.46 
166.140	-0.3467	0.0615	0.9351	3.2349	-1.5869	2.5635	5.2295	19.0283	164.8004	44.3700	73	-19	132	100768	0.46 
166.321	-0.3506	0.0713	0.9424	0.8545	-1.4648	0.3662	5.4053	19.0118	161.4771	44.3800	73	-18	129	100769	0.46 
166.338	-0.3130	0.0684	0.9121	-0.6104	-11.6577	0.0610	5.4712	18.5449	158.3624	44.4000	73	-19	132	100769	0.46 
166.474	-0.3472	0.0454	0.9468	-0.3052	-2.4414	-1.1597	5.2844	18.2043	155.3302	44.3900	72	-21	131	100769	0.46 
166.544	-0.3433	0.0469	0.9380	-0.3052	-7.2632	1.1597	5.1471	17.9352	152.4573	44.4000	71	-20	133	100769	0.46 
166.725	-0.2114	0.0732	0.9399	-0.3662	-2.8687	10.3760	5.0592	17.1387	149.8535	44.4100	70	-22	128	100769	0.46 
166.885	-0.2817	0.0508	0.9146	-2.6855	1.2207	-6.5308	4.6088	17.1826	147.1069	44.4100	72	-20	127	100769	0.46 
166.949	-0.3325	0.0425	0.9751	-5.0659	1.9531	-4.5776	3.8123	17.5342	143.9648	44.4100	70	-19	126	100769	0.46 
166.961	-0.3467	0.0278	0.9453	-5.1880	-6.7749	-4.1504	3.0762	17.3474	141.0150	44.4300	65	-17	132	100770	0.46 
167.096	-0.5044	0.0352	0.9902	-7.8125	-9.8267	10.2539	2.5928	16.7322	138.8397	44.4300	65	-15	129	100770	0.46 
167.177	-0.2490	-0.0254	1.0063	0.1221	-40.7104	-4.9438	2.0490	13.4583	136.4886	44.4300	60	-17	126	100770	0.46 
167.322	-0.2715	0.0303	0.9712	6.1035	-51.8799	-0.2441	2.2028	8.5309	133.5168	44.4300	47	-16	117	100769	0.46 
167.335	-0.1133	-0.0215	1.0186	7.2021	-64.5142	10.6201	2.8949	2.8619	132.8961	44.4200	35	-16	104	100769	0.46 
167.510	-0.0093	0.0342	0.9702	-0.1831	-87.3413	12.0239	3.1146	-4.7021	132.8632	44.4500	14	-17	92	100769	0.46 
167.679	0.2534	0.0718	0.8750	0.1221	-129.4556	22.9492	2.9114	-15.3479	137.0599	44.4400	-8	-22	82	100769	0.46 
167.732	0.2778	0.0078	0.9360	3.5400	-134.1553	-0.0610	2.8290	-28.8007	143.2013	44.4700	-44	-21	77	100769	0.46 
167.756	0.6880	0.0269	0.6211	-2.8687	-125.4883	2.5024	2.6202	-41.9568	149.0625	44.4400	-82	-23	75	100769	0.46 
167.963	0.6660	-0.0068	0.2798	0.1831	-120.1782	-19.6533	2.1588	-54.9371	154.9182	44.4600	-122	-24	82	100769	0.46 
168.117	1.1465	-0.0513	0.1406	2.1362	-106.6284	-17.5171	7.3663	-66.1597	154.2810	44.4500	-153	-17	105	100769	0.46 
168.129	0.6470	-0.1704	0.1460	-14.6484	43.1519	16.7847	12.2607	-69.6039	154.3579	44.4500	-176	-21	120	100769	0.46 
168.186	1.0708	-0.0142	0.1064	-6.0425	11.9629	-1.4038	12.5574	-67.5439	158.4998	44.4400	-173	-26	118	100769	0.46 
168.292	0.7588	0.1182	0.4121	-14.0991	28.4424	-5.6152	11.9257	-64.0173	162.8174	44.4300	-169	-23	113	100769	0.46 
168.389	0.8765	0.0093	0.5933	5.8594	7.4463	2.0752	9.2889	-62.1661	169.9585	44.4400	-164	-23	109	100769	0.46 
168.572	0.9014	-0.0249	0.4087	2.2583	0.2441	3.9673	9.1187	-62.5671	175.4407	44.4200	-160	-21	109	100769	0.46 
168.731	0.9307	0.1230	0.4287	1.2207	7.6904	-4.6387	10.5579	-62.4792	178.5663	44.4400	-159	-23	106	100769	0.46 
168.782	0.8730	0.1328	0.4370	0.6714	-3.7231	-1.4648	11.5247	-62.1826	-177.9730	44.4200	-160	-25	102	100770	0.46 
168.919	0.8994	0.0659	0.3789	-3.3569	0.9155	1.4038	11.3763	-62.3694	-174.1718	44.4400	-162	-26	102	100770	0.46 
168.934	0.9482	0.0112	0.4932	0.3052	6.9580	-1.4648	11.0522	-62.3859	-170.3320	44.4300	-161	-26	102	100770	0.46 
169.118	0.8984	0.0391	0.4375	3.8452	0.6714	-1.0376	10.9479	-62.6495	-166.3275	44.4200	-160	-23	103	100770	0.46 
169.189	0.8872	0.1152	0.4033	3.0518	-2.7466	-5.6152	11.9147	-62.8583	-163.6963	44.4400	-165	-25	103	100770	0.46 
169.329	0.9004	0.0757	0.4385	-0.4883	-0.1831	0.8545	12.5354	-62.8253	-160.9662	44.4400	-161	-27	102	100770	0.46 
169.410	0.9248	0.0723	0.4531	-1.2207	2.3804	1.8311	12.2113	-62.8638	-157.7747	44.4400	-161	-27	103	100769	0.46 
169.582	0.8901	0.0747	0.4229	-2.0142	-0.8545	0.4883	11.6455	-63.1329	-154.4568	44.4400	-160	-27	101	100769	0.46 
169.594	0.9106	0.0542	0.4429	1.7700	0.4272	-3.3569	11.6235	-63.2538	-151.8036	44.4200	-167	-23	101	100769	0.46 
169.745	0.9063	0.0625	0.4287	-0.0610	2.3193	-2.1362	11.8323	-63.2922	-149.4031	44.4500	-168	-23	106	100769	0.46 
169.811	0.8950	0.0674	0.4556	0.3052	0.4883	-0.6104	11.9257	-63.1384	-147.0575	44.4400	-165	-25	104	100769	0.46 
169.923	0.8911	0.0752	0.4272	-0.6104	-0.1221	-0.3052	11.8103	-63.2263	-144.7229	44.4500	-164	-25	102	100768	0.46 
169.986	0.8950	0.0552	0.4478	0.3662	-0.1221	0.1831	11.6620	-63.1989	-142.4487	44.4400	-163	-25	103	100768	0.46 
170.159	0.9409	0.0786	0.4604	0.7324	2.0142	0.9766	11.9586	-62.9956	-140.5920	44.4300	-161	-27	101	100768	0.46 
170.347	0.9336	0.0825	0.4741	-1.2817	5.1270	-1.8311	11.4038	-63.0341	-138.2245	44.4400	-163	-26	102	100768	0.46 
170.402	0.9077	0.0537	0.4590	0.3052	2.0752	-1.8921	11.0358	-62.8638	-136.1591	44.4500	-161	-25	104	100768	0.46 
170.425	0.8711	0.0693	0.4312	1.8921	-1.1597	2.5635	10.6018	-62.8638	-133.8739	44.4400	-159	-25	106	100768	0.46 
170.611	0.8965	0.0620	0.4473	-0.4272	-0.2441	0.2441	10.5469	-62.9077	-132.1106	44.4600	-161	-26	101	100767	0.46 
170.628	0.8936	0.0635	0.4492	0.1831	0.3052	-0.9766	10.4590	-62.9572	-130.5780	44.4400	-161	-28	102	100767	0.46 
170.818	0.8931	0.0659	0.4639	0.2441	-1.8311	1.1597	10.4425	-62.9407	-129.1498	44.4400	-160	-24	100	100767	0.46 
170.933	0.9038	0.0674	0.4438	-0.4272	0.7324	-1.7090	10.3601	-63.0231	-127.7380	44.4500	-161	-25	101	100767	0.47 
171.007	0.8955	0.0674	0.4521	0.0000	-0.0610	0.0000	10.2777	-63.0231	-126.4252	44.4600	-161	-28	102	100767	0.47 
171.178	0.9004	0.0708	0.4443	0.4272	-2.3804	0.0000	10.2283	-63.1989	-125.1672	44.4600	-162	-24	101	100767	0.47 
171.196	0.9067	0.0767	0.4443	0.0610	-3.0518	0.5493	10.8490	-63.4845	-124.3323	44.4400	-159	-24	104	100767	0.46 
171.346	0.8979	0.0454	0.4219	-1.0986	-3.0518	1.0376	10.4315	-63.8086	-122.9535	44.4500	-162	-27	103	100768	0.46 
171.409	0.8804	0.0737	0.4272	0.3662	-4.0283	1.0986	10.1569	-64.1162	-121.8219	44.4500	-159	-28	103	100767	0.46 
171.609	0.9106	0.0752	0.4043	0.7324	-0.3052	-1.8311	10.4041	-64.5667	-121.0583	44.4700	-162	-27	103	100768	0.46 
171.775	0.8813	0.0942	0.4219	-1.5259	-3.1128	0.4272	10.6842	-64.4458	-120.4816	44.4600	-164	-29	104	100768	0.46 
171.835	0.9146	0.0747	0.4048	-3.2349	-2.6855	1.7700	9.9316	-64.7534	-119.2072	44.4600	-164	-25	102	100768	0.46 
171.848	0.8589	-0.0210	0.3774	1.4038	-11.6577	4.7607	8.2288	-64.7589	-117.0154	44.4600	-162	-25	102	100768	0.46 
171.983	0.9233	0.0698	0.4570	0.9766	-3.7231	-0.4272	7.9816	-65.3082	-115.9552	44.4600	-164	-22	103	100768	0.46 
172.143	0.8047	-0.0156	0.4160	6.2866	-37.2314	-1.0376	7.3004	-66.7969	-114.4556	44.4600	-162	-21	108	100768	0.46 
172.203	0.8623	0.0107	0.2573	8.3008	-67.0166	35.1563	8.8220	-71.9659	-114.3457	44.4600	-172	-23	112	100767	0.46 
172.243	1.0137	0.0088	0.1689	0.9155	61.0352	-5.1880	3.8452	-71.5045	-109.0778	44.4600	-171	-24	118	100768	0.46 
172.584	0.9941	0.1025	0.4756	0.1221	58.5327	1.7090	1.8127	-65.2368	-106.8420	44.4700	-159	-20	105	100768	0.46 
172.588	0.9082	-0.0234	0.5566	2.7466	66.3452	-0.4272	-0.4834	-58.7384	-103.8263	44.4700	-144	-18	98	100768	0.46 
172.643	0.8350	-0.0337	0.5103	7.8735	84.2285	-5.1880	1.2909	-51.4435	-104.7162	44.4600	-124	-22	90	100768	0.46 
172.787	0.7500	0.0664	0.8052	8.5449	106.4453	-20.9961	3.4332	-41.9843	-106.0126	44.4500	-103	-22	81	100768	0.46 
172.861	0.6143	0.1045	0.7769	5.4932	108.9478	-17.8833	4.1638	-31.2726	-106.5839	44.4400	-71	-29	73	100768	0.46 
172.976	0.2954	0.0381	0.8535	8.7280	96.6797	-14.3433	4.5538	-20.5774	-106.5948	44.4400	-37	-30	71	100768	0.46 
173.044	0.1211	-0.0269	0.9219	6.8359	116.2720	-26.8555	5.2844	-9.2780	-109.3799	44.4400	-8	-28	77	100768	0.46 
173.206	-0.2471	0.1953	0.9912	1.4038	100.7690	-2.6855	5.9766	2.5598	-114.3457	44.4300	21	-26	89	100768	0.46 
173.221	-0.3369	0.0664	0.8521	-2.6245	57.9224	-17.0288	6.2457	9.2834	-117.6526	44.4100	51	-26	103	100768	0.46 
173.376	-0.3911	0.0938	0.8936	3.9063	64.6362	-4.9438	6.5533	16.2158	-124.5740	44.4100	71	-27	121	100768	0.46 
173.453	-0.5547	0.1250	0.8613	-2.7466	53.1006	-13.8550	6.9653	22.2858	-130.8087	44.4200	77	-25	136	100768	0.46 
173.625	-0.5400	0.0435	0.7998	-0.4883	0.3662	-8.5449	6.8390	24.9884	-137.0160	44.4300	86	-20	147	100768	0.46 
173.641	-0.5576	0.0474	0.8901	-0.3052	-5.4932	6.4087	7.1851	25.3564	-143.0200	44.4400	87	-20	151	100768	0.46 
173.791	-0.4658	0.0469	0.8662	-0.5493	-14.8315	4.4556	7.4377	24.4720	-148.1836	44.4300	86	-23	152	100768	0.46 
173.871	-0.3706	0.0532	0.8223	-0.4272	-14.6484	4.0894	7.5092	23.4064	-153.4900	44.4400	85	-24	146	100768	0.46 
174.014	-0.5264	0.1211	0.9341	4.2725	7.2021	0.7324	7.9926	24.1754	-158.7415	44.4300	85	-23	145	100768	0.46 
174.189	-0.4380	0.1099	0.8462	-1.1597	7.6294	4.0283	8.3112	24.5984	-163.1854	44.4300	86	-24	144	100769	0.46 
174.238	-0.4678	0.0894	0.8770	0.5493	1.4648	-0.1831	8.4485	25.3729	-167.7612	44.4600	92	-19	143	100768	0.46 
174.249	-0.4663	0.0835	0.8770	-2.1973	1.8311	-2.4414	8.2837	25.7739	-172.5568	44.4500	90	-20	144	100768	0.46 
174.436	-0.4580	0.0869	0.8706	-2.1973	2.1362	-1.0986	8.0035	25.9222	-177.3029	44.4600	86	-19	144	100768	0.46 
174.516	-0.4644	0.0679	0.8706	-1.4038	0.9766	-0.3662	7.7454	26.2793	178.3630	44.4600	90	-21	147	100768	0.46 
174.614	-0.4805	0.0757	0.8701	-1.0986	0.7324	0.9155	7.5970	26.6364	174.3311	44.4700	91	-21	146	100768	0.46 
174.672	-0.4824	0.0752	0.8711	-1.8311	0.6104	-0.1831	7.4048	26.8945	170.4639	44.4700	91	-25	146	100768	0.46 
174.777	-0.4692	0.0688	0.8730	-1.5259	-0.8545	-1.2207	7.1246	27.0319	166.6846	44.4700	88	-22	148	100769	0.46 
174.865	-0.4678	0.0605	0.8726	-0.6714	-6.1646	1.5259	6.8445	26.6583	162.9547	44.4700	88	-22	148	100768	0.46 
175.060	-0.4604	0.0649	0.8921	-1.0376	0.7935	0.3052	6.6962	26.4551	159.6533	44.4800	88	-23	150	100768	0.46 
175.079	-0.4580	0.0781	0.8564	-1.4038	3.4790	0.9766	6.5918	26.6254	156.6541	44.4800	86	-21	147	100768	0.46 
175.242	-0.4980	0.0444	0.9111	-2.5635	10.1318	2.7466	6.5973	27.6910	154.2975	44.5000	90	-23	153	100767	0.46 
175.425	-0.4907	0.0635	0.8628	-4.0283	-0.3052	-2.0752	6.1029	28.1360	151.1499	44.4900	92	-20	152	100767	0.46 
175.429	-0.4775	0.0566	0.8726	-2.8687	1.0986	-0.3052	5.6305	28.2129	148.1671	44.4800	92	-19	154	100768	0.46 
175.488	-0.4951	0.0342	0.8545	-1.6479	0.6104	-2.9907	5.1251	28.3997	145.0964	44.5000	92	-19	156	100767	0.47 
175.655	-0.4766	0.0371	0.8628	-0.7324	-2.5024	-2.5635	4.8450	28.2898	142.4048	44.4800	89	-20	153	100767	0.46 
175.806	-0.4775	0.0376	0.8667	0.4272	-1.4648	0.6104	4.7626	28.2019	139.9713	44.5000	90	-17	154	100767	0.47 
175.861	-0.4810	0.0435	0.8770	0.4883	-1.2817	1.6479	4.8230	28.1580	137.8455	44.5000	89	-18	153	100767	0.46 
175.903	-0.4663	0.0581	0.8657	0.6104	-0.6714	0.0000	4.8395	27.9218	135.7471	44.4800	89	-20	150	100767	0.46 
176.071	-0.4741	0.0483	0.8696	0.2441	0.6104	-0.2441	4.7791	27.9767	133.6981	44.4800	91	-18	150	100767	0.46 
176.201	-0.4658	0.0483	0.8623	0.0000	1.5869	0.0000	4.7021	28.0975	131.7535	44.4800	90	-19	153	100768	0.46 
176.268	-0.4658	0.0566	0.8579	0.1221	0.8545	-0.9155	4.6747	28.1799	130.0012	44.4700	89	-22	154	100768	0.46 
176.460	-0.5239	0.0444	0.8916	0.3662	-2.5635	-0.7935	4.6307	28.2678	128.3368	44.4700	91	-23	151	100768	0.46 
176.526	-0.4390	0.0610	0.8677	0.6104	-3.4790	-0.9766	4.5538	27.6636	126.5076	44.4700	86	-20	148	100768	0.46 
176.614	-0.4702	0.0508	0.8765	-0.2441	-1.4648	0.2441	4.4604	27.4823	124.9475	44.4700	87	-15	150	100768	0.46 
176.689	-0.4712	0.0464	0.8818	0.0000	-0.0610	0.2441	4.3671	27.4548	123.5303	44.4600	86	-20	153	100769	0.46 
176.861	-0.4590	0.0508	0.8701	-0.1831	0.3052	0.3662	4.3121	27.4878	122.2449	44.4600	89	-19	148	100768	0.46 
176.919	-0.4722	0.0508	0.8735	-0.1831	-4.0283	-0.8545	4.2737	27.3944	121.0034	44.4800	86	-18	149	100768	0.46 
177.036	-0.4658	0.0503	0.8804	-0.2441	0.5493	-0.6104	4.1583	27.3340	119.7455	44.4800	85	-16	147	100767	0.46 
177.101	-0.4688	0.0479	0.8838	-0.0610	0.0000	-0.1831	4.0759	27.4274	118.5645	44.5000	89	-19	149	100767	0.47 
177.262