StartTime: 2017-07-07 11:51:18.845
Time(s)	ax(g)	ay(g)	az(g)	wx(deg/s)	wy(deg/s)	wz(deg/s)	AngleX(deg)	AngleY(deg)	AngleZ(deg)	T(°)	hx	hy	hz	Pressure(Pa)	Altitude(m) 
90.163	-0.3022	0.0981	0.9248	0.0000	0.0000	0.1221	6.1633	18.4021	143.0035	45.4100	144	-238	179	100811	0.43 
90.330	-0.3154	0.1157	0.9238	-0.3052	-0.7324	2.1973	6.2238	18.3307	143.1628	45.4100	145	-239	180	100811	0.43 
90.381	-0.2974	0.1328	0.9126	-1.5869	-1.8921	5.0659	6.2897	18.1384	143.4979	45.4300	144	-240	179	100811	0.43 
90.481	-0.3262	0.0942	0.9331	-2.5024	0.0000	5.1270	6.2238	18.2483	144.1571	45.4200	143	-241	179	100811	0.43 
90.579	-0.3096	0.0864	0.9487	-0.7324	-1.4038	2.1973	6.1523	18.1714	144.5471	45.4400	145	-242	177	100811	0.43 
90.726	-0.3184	0.1157	0.9551	0.4272	-2.3193	0.0000	6.1414	18.0450	144.5856	45.4400	143	-242	177	100812	0.43 
90.788	-0.3066	0.0713	0.9482	-2.1362	-1.4648	4.3335	6.0754	17.7814	144.9866	45.4700	146	-244	178	100812	0.43 
90.897	-0.2988	0.0918	0.9326	0.6104	0.3052	-1.7090	5.9381	17.7045	144.9097	45.4600	142	-244	176	100812	0.43 
90.990	-0.2925	0.1113	0.9185	1.1597	0.5493	-0.1221	6.0699	17.7264	144.7449	45.4700	143	-243	177	100812	0.43 
91.116	-0.3071	0.1250	0.9399	-0.5493	1.7090	4.0283	6.2457	17.8638	145.0305	45.4600	143	-245	178	100812	0.43 
91.198	-0.3218	0.1274	0.9438	-1.4648	5.0049	13.7329	6.5533	18.0780	146.1237	45.4700	141	-245	175	100812	0.43 
91.319	-0.2988	0.1226	0.9395	0.0610	1.8311	9.6436	6.8994	18.2373	147.3651	45.4700	139	-246	179	100812	0.43 
91.405	-0.2876	0.1421	0.9307	0.4272	4.0894	6.5308	7.2620	18.2922	148.1726	45.4800	139	-252	179	100813	0.43 
91.522	-0.2759	0.1460	0.9336	1.0376	2.5024	5.8594	7.5916	18.4790	148.8153	45.4900	138	-251	178	100812	0.43 
91.614	-0.2798	0.1426	0.9429	0.9155	4.0894	1.2817	7.8937	18.6053	149.2218	45.5000	140	-256	181	100812	0.43 
91.742	-0.2793	0.1294	0.9766	-0.0610	2.8076	-5.3711	7.9816	18.7042	149.2218	45.4800	139	-254	186	100812	0.43 
91.822	-0.2407	0.1519	0.9097	0.0000	-3.6011	-5.1270	8.0585	18.1439	148.9252	45.4900	140	-255	189	100813	0.43 
91.953	-0.3164	0.0664	0.9336	-7.8125	-6.0425	-19.4702	6.9818	17.8418	147.1674	45.5100	140	-254	183	100813	0.43 
92.029	-0.3003	-0.0088	0.9741	-10.8032	10.9863	-30.0903	5.1910	18.5999	144.5801	45.5000	139	-246	179	100813	0.43 
92.190	-0.3135	0.0332	0.9468	-21.3013	1.3428	-26.4282	2.4554	19.7589	141.8665	45.5200	148	-239	179	100813	0.43 
92.349	-0.2246	0.0430	1.0020	-16.2354	-21.3623	5.6763	0.0494	19.1766	140.6635	45.5200	151	-230	180	100813	0.43 
92.396	-0.2354	-0.0654	1.3169	-19.3481	29.7852	5.0659	-0.8514	17.8363	142.3828	45.5200	150	-229	176	100813	0.43 
92.516	-0.5674	-0.2266	1.0034	-11.2915	41.8091	9.2773	-2.0654	19.0778	142.8168	45.5100	149	-228	174	100813	0.43 
92.574	-0.7261	0.0078	1.2573	10.6812	28.0762	54.1992	0.6921	21.6266	148.1891	45.5100	148	-238	178	100813	0.43 
92.758	-0.2104	0.1401	0.4414	9.3994	14.8315	48.8281	4.9603	21.2146	153.2867	45.4700	140	-256	182	100812	0.43 
92.814	-0.3579	0.1270	0.9199	9.0942	-15.5029	16.7847	6.8280	22.4066	156.2421	45.4800	133	-271	186	100812	0.43 
92.926	-0.2891	0.0386	1.2168	13.6719	9.3384	0.7935	7.9761	21.5991	156.8408	45.4600	128	-275	191	100812	0.43 
92.982	-1.0728	0.0435	1.3521	7.2632	-24.5972	-15.0757	8.8550	22.9010	155.1929	45.4700	131	-277	191	100812	0.43 
93.160	-0.4287	0.1768	0.9912	-33.9355	-28.2593	-20.2026	5.8502	20.5280	151.3312	45.4700	132	-268	189	100811	0.43 
93.229	-0.2241	-0.0371	0.4902	-26.3672	2.2583	-4.1504	2.0984	18.7976	150.0238	45.4400	132	-260	177	100811	0.43 
93.333	-0.3481	-0.2632	1.0869	-33.8135	15.3809	-11.3525	-0.5438	20.0226	149.5129	45.4500	133	-256	167	100810	0.43 
93.390	-0.4980	0.0244	1.2944	-5.1270	12.5122	1.5259	-1.7578	21.0004	149.0186	45.4400	136	-253	172	100810	0.43 
93.565	-0.4385	0.3330	0.6323	3.7842	-23.9258	25.6958	-1.3348	21.7090	150.1721	45.4600	134	-252	170	100810	0.43 
93.632	-0.2007	-0.1313	0.6768	34.3628	-27.6489	16.7847	2.0984	21.5552	154.0558	45.4600	127	-265	176	100809	0.43 
93.758	-0.3101	0.1943	0.6997	24.5361	27.7100	-15.6860	5.7458	21.8738	153.7866	45.4500	123	-271	179	100809	0.43 
93.816	-0.3350	0.3745	1.0708	14.1602	-13.7329	16.1743	7.4817	22.3792	153.1000	45.4600	126	-274	187	100808	0.43 
93.973	-0.5405	0.1401	1.3784	-3.4790	2.8076	3.5400	9.0308	22.1155	155.5005	45.4600	125	-279	193	100808	0.43 
94.064	-0.1060	0.2319	0.4609	-1.0986	-20.0806	-28.8696	8.8275	19.9237	153.1549	45.4600	125	-280	187	100808	0.43 
94.155	-0.1841	-0.1001	0.5479	-22.7661	-40.5884	-29.4800	5.8337	19.4238	149.5074	45.4600	128	-272	185	100807	0.43 
94.226	-0.2666	0.0469	0.6807	-25.9399	2.6855	21.6064	3.8782	18.8251	149.1339	45.4300	129	-265	173	100807	0.43 
94.381	-0.2124	-0.1396	0.9976	6.7749	-26.6113	7.5073	2.8345	18.1824	150.1172	45.4400	124	-265	168	100807	0.43 
94.470	-0.3647	0.0352	1.2134	-3.2349	21.5454	-19.0430	1.5765	19.4513	147.5134	45.4500	127	-260	172	100806	0.43 
94.549	-0.5210	0.0332	0.8418	-8.7280	-14.9536	23.9258	1.0272	22.8625	148.3319	45.4400	132	-258	178	100806	0.43 
94.637	-0.3901	0.2354	0.8096	28.3203	-15.0757	-1.5869	3.3618	22.6318	149.1669	45.4200	131	-263	183	100806	0.43 
94.781	-0.2817	0.1523	0.6611	9.2163	-1.0986	-6.7749	5.9546	21.4233	149.4305	45.4100	129	-266	182	100806	0.43 
94.859	-0.2739	0.0732	0.9741	5.9204	0.8545	-3.1738	6.4380	21.5387	149.1064	45.4200	129	-267	189	100805	0.43 
94.945	-0.3022	0.0620	1.0986	5.5542	-2.5635	13.3057	7.6245	20.5664	150.0073	45.4100	127	-271	188	100805	0.43 
95.053	-0.1445	-0.1436	0.4814	-21.9116	-75.6226	-11.4136	8.6957	18.9789	151.8695	45.4100	123	-275	188	100805	0.43 
95.198	-0.3291	0.0488	0.9604	-29.1138	-25.3906	-6.5308	5.5865	19.2480	149.6228	45.4100	120	-272	184	100805	0.43 
95.266	-0.2988	0.1289	0.5068	-37.8418	24.2920	14.0381	2.2357	19.1052	149.3042	45.4000	120	-263	177	100805	0.43 
95.372	-0.2217	-0.3740	0.9922	-14.5264	-3.4180	14.6484	0.0110	20.6049	151.4026	45.3900	122	-268	175	100805	0.43 
95.468	-0.2886	0.2583	1.2734	-6.4697	23.8647	-13.7329	-1.1316	20.3137	149.3097	45.3900	122	-266	174	100804	0.43 
95.580	-0.4023	-0.2480	0.8599	-3.9063	-52.1851	12.2681	-0.6592	20.6598	151.6718	45.3900	121	-262	171	100804	0.43 
95.676	-0.4805	0.2002	0.8105	32.3486	3.3569	2.7466	2.2742	20.9454	151.9299	45.3800	115	-269	174	100803	0.43 
95.788	-0.2959	0.0742	0.6387	17.1509	4.3945	-11.9629	5.6964	20.7422	151.6223	45.3900	115	-278	178	100803	0.44 
95.884	-0.1270	0.2881	0.9478	-6.1646	-4.5166	45.5933	7.9321	19.8798	153.9349	45.3800	115	-277	184	100803	0.44 
95.996	-0.4238	-0.0479	1.3477	-8.3008	31.5552	8.6670	8.3496	20.2588	158.3679	45.4000	101	-287	187	100802	0.44 
96.092	-0.6919	0.1416	0.7246	1.2817	-28.6865	2.5635	8.4705	22.1265	155.9839	45.3800	110	-288	191	100802	0.44 
96.204	-0.3740	-0.2065	0.8833	-28.4424	2.9297	-7.6294	6.1688	22.6208	155.5994	45.3800	104	-286	193	100801	0.44 
96.299	-0.2563	-0.1035	0.6055	-11.8408	5.6763	-15.5640	2.7301	22.4561	153.0011	45.3800	107	-280	185	100801	0.44 
96.406	-0.4023	-0.0391	1.0903	-5.2490	-7.8125	-23.0713	0.3461	22.7087	149.8480	45.3800	114	-277	181	100801	0.44 
96.596	-0.4150	0.0425	1.1768	2.6245	-8.9722	-13.4277	-1.0052	21.7365	147.1729	45.3900	119	-266	180	100801	0.44 
96.681	-0.6206	-0.0181	1.0313	25.5737	-2.5024	15.9912	1.8567	23.5767	149.8920	45.4000	119	-268	181	100800	0.44 
96.791	-0.3062	0.3359	0.7188	20.4468	-18.2495	21.6675	5.8063	22.5110	151.3037	45.4000	114	-276	187	100800	0.44 
96.862	-0.3540	0.1768	0.5908	17.0288	27.7100	10.7422	8.2178	22.4506	153.4296	45.3800	110	-284	197	100799	0.44 
96.978	-0.1987	0.0127	1.0078	-3.0518	14.8926	21.3623	10.4315	23.1976	156.0223	45.3800	106	-291	203	100799	0.44 
97.024	-0.4546	0.0981	1.1733	7.1411	3.1128	-0.9155	10.8820	23.2471	157.0990	45.4000	100	-296	203	100799	0.44 
97.213	-0.5044	-0.0166	0.6978	-7.0801	-55.9692	-26.7334	9.9207	21.8958	155.4181	45.4000	99	-291	202	100799	0.44 
97.289	-0.4678	0.2544	0.7832	-2.5635	-9.1553	-39.5508	6.6852	21.6595	149.1779	45.4100	107	-287	195	100798	0.44 
97.406	-0.3184	0.0107	0.5645	-24.2310	1.8921	8.9111	4.6472	22.2583	147.8979	45.3900	117	-278	194	100798	0.44 
97.473	-0.2783	0.0176	0.9097	1.4038	-11.4746	2.1362	2.5873	21.8958	147.8979	45.3900	116	-278	188	100798	0.44 
97.637	-0.1348	0.0317	1.2300	-9.1553	5.1880	-6.2256	1.9226	19.8907	147.7441	45.4000	112	-274	185	100798	0.44 
97.709	-0.9253	0.2476	1.4414	-7.2632	34.1187	9.2773	0.5438	22.1649	146.4148	45.4100	118	-272	188	100797	0.44 
97.784	-0.3828	-0.2207	0.9775	23.3765	-2.6245	1.0986	1.6205	22.4561	148.7714	45.4000	114	-278	189	100796	0.44 
97.854	-0.1460	0.2314	0.5430	12.5122	-11.4136	-6.4697	4.4440	21.2750	148.0737	45.4000	115	-278	194	100796	0.44 
98.029	-0.3008	-0.0913	0.9370	-12.3901	2.9907	8.5449	4.5758	20.6543	148.7659	45.4000	114	-280	195	100796	0.44 
98.098	-0.3955	0.1084	0.9063	3.4790	7.8125	36.4380	4.9658	19.8743	149.9634	45.3900	112	-279	193	100796	0.44 
98.222	-0.6348	0.4775	1.3198	6.2256	-5.0659	11.3525	6.9983	20.2478	152.2815	45.4100	107	-285	200	100796	0.44 
98.287	-0.4370	0.1958	0.9272	-14.0991	36.3770	-0.6104	7.1027	21.1322	154.3469	45.4100	99	-292	200	100795	0.44 
98.435	-0.1304	-0.0522	0.4717	-29.9072	-10.0708	23.6206	4.9054	21.4728	155.9894	45.3900	99	-291	199	100795	0.44 
98.498	-0.3760	-0.2031	0.7734	-33.0811	1.3428	-0.4272	1.1536	23.0768	156.8463	45.4100	95	-293	196	100795	0.44 
98.640	-0.2549	-0.0771	1.0542	-3.0518	-5.2490	-0.4272	-0.8899	22.5330	155.9015	45.4000	93	-294	189	100795	0.44 
98.709	-0.2856	0.0918	0.9541	-1.4648	-2.4414	-18.9819	-1.7908	22.3187	153.8965	45.4000	101	-293	187	100794	0.44 
98.836	-0.5239	0.4360	0.8516	14.2212	-68.5425	6.8970	-1.7688	22.9285	152.6495	45.4100	108	-287	189	100794	0.44 
98.901	-0.4844	-0.0376	0.8682	23.9258	-3.5400	21.3623	0.7690	21.9672	154.8248	45.3900	98	-291	190	100794	0.44 
99.054	-0.3120	0.0864	0.6357	9.2163	7.8125	33.8745	4.1199	21.7859	157.6318	45.4000	95	-297	193	100794	0.44 
99.111	-0.2534	0.3013	0.7388	-3.0518	23.9868	52.7954	6.6797	21.8024	162.4274	45.4100	85	-306	194	100794	0.44 
99.255	-0.0039	0.0674	1.0723	-6.8359	0.1831	45.1050	7.9486	21.1707	168.0194	45.4000	69	-312	195	100794	0.44 
99.316	-0.2651	0.4634	1.2280	10.1318	1.6479	10.5591	9.3823	22.6593	169.8047	45.4000	62	-315	202	100794	0.44 
99.470	-0.3096	0.2598	0.6992	-16.9067	-19.5923	-23.4375	9.3988	23.3240	168.6511	45.4000	66	-316	206	100794	0.44 
99.525	-0.3120	0.1909	0.6592	-30.4565	-38.3911	5.8594	6.3391	21.7474	166.5967	45.4100	70	-316	199	100794	0.44 
99.659	-0.3589	-0.0713	0.7666	-29.1138	-3.5400	22.6440	3.8397	19.9896	168.3325	45.4100	67	-311	182	100793	0.44 
99.719	-0.1797	-0.0376	0.7378	-13.2446	-14.2212	13.0615	1.9666	18.6273	169.2773	45.4100	58	-312	177	100793	0.44 
99.865	-0.0996	0.0493	0.7456	-8.0566	15.6860	26.3672	1.3403	18.2758	170.6781	45.4300	52	-310	172	100793	0.44 
99.928	-0.3745	-0.0391	1.1875	-12.1460	-5.2490	61.3403	1.9006	20.1929	174.6002	45.4400	48	-315	173	100792	0.44 
100.079	-0.6274	0.0093	1.1538	-27.2217	5.5542	53.0396	2.6971	18.9734	-179.0442	45.4300	30	-319	170	100792	0.44 
100.137	-0.4106	0.2319	0.8867	-21.6675	24.7803	82.2754	3.4113	19.0448	-172.6776	45.4400	6	-321	163	100792	0.44 
100.251	-0.4146	0.0503	0.9331	25.2075	14.2212	26.1230	5.5591	19.1382	-167.5305	45.4500	-14	-328	159	100792	0.44 
100.336	-0.1860	0.3032	0.7866	-8.7280	2.3193	49.8047	7.9376	18.8745	-165.6628	45.4500	-22	-333	166	100792	0.44 
100.476	-0.1294	0.0835	0.8018	-29.9683	-0.6714	9.7046	6.9049	18.1934	-162.3285	45.4500	-37	-333	161	100792	0.44 
100.547	-0.2563	0.0640	1.2148	-0.1221	-17.6392	-21.1182	4.6912	18.0121	-164.1028	45.4800	-38	-333	156	100793	0.44 
100.682	-0.4570	0.4038	0.7373	0.9155	-20.6299	18.6768	5.3613	18.0560	-166.6626	45.4600	-28	-329	164	100793	0.44 
100.754	-0.6465	0.2515	1.3345	-7.7515	-17.8833	19.2871	3.5156	18.5120	-168.3105	45.4800	-26	-328	156	100793	0.44 
100.888	-0.2847	0.0981	0.7637	-40.0391	2.0142	84.8389	3.1091	16.0345	-163.2623	45.4600	-39	-324	146	100793	0.44 
100.964	-0.1543	-0.0190	0.7739	-26.9775	1.8311	98.0835	2.4994	15.4962	-154.2096	45.4700	-70	-320	138	100794	0.44 
101.071	-0.2495	0.0591	0.9702	-10.3760	30.2734	69.5801	2.6038	17.1167	-147.1289	45.4700	-102	-313	131	100794	0.44 
101.162	-0.1313	0.2021	1.1157	-1.7090	-24.4751	100.7080	4.3396	17.3969	-140.6854	45.4900	-118	-304	128	100795	0.44 
101.275	-0.6733	-0.5039	0.7456	-49.0723	12.8174	31.3721	3.7189	17.3035	-134.7968	45.5000	-143	-295	129	100796	0.44 
101.370	-0.4717	0.0562	1.1113	9.2163	-20.0806	71.5332	7.5806	17.8088	-128.8806	45.5200	-160	-281	126	100796	0.44 
101.495	-0.0483	0.1616	0.6675	-11.4136	5.9204	51.6357	9.3439	14.0460	-125.5627	45.5000	-173	-268	126	100796	0.44 
101.577	-0.0269	0.1499	0.7485	-25.0854	-1.4038	50.4150	8.6023	14.0955	-122.1570	45.4900	-184	-259	126	100796	0.44 
101.700	-0.3994	0.1694	1.2793	-9.6436	39.0625	2.3804	7.1741	15.0403	-120.6024	45.5000	-188	-248	119	100795	0.44 
101.843	-0.3945	0.4727	1.1694	19.1040	29.2358	22.5220	8.8440	16.4246	-120.6464	45.4900	-184	-244	120	100794	0.44 
101.904	-0.5610	-0.0347	0.8818	-25.8179	-2.1362	6.2256	8.3221	17.5616	-122.5909	45.4800	-177	-239	125	100794	0.44 
101.990	-0.3604	-0.0894	0.7344	-53.1006	-21.9116	46.8140	6.6083	16.3257	-120.2563	45.4500	-179	-223	126	100794	0.44 
102.176	-0.3340	-0.0234	0.9482	-41.5649	-21.7896	61.5845	3.3728	15.5951	-116.5704	45.4600	-186	-207	121	100793	0.44 
102.288	-0.1411	-0.0352	0.9404	-18.1885	4.3335	41.6260	1.8237	13.5297	-112.1869	45.4500	-192	-190	118	100792	0.44 
102.330	-0.1177	-0.1772	0.9619	-26.3672	11.5967	47.3022	0.1483	13.5571	-108.5339	45.4700	-192	-174	119	100792	0.44 
102.490	-0.2979	0.1123	0.5840	-5.4932	9.9487	71.2280	0.0000	15.2161	-106.3531	45.4400	-188	-159	115	100791	0.44 
102.568	-0.1719	0.0923	0.7510	2.1362	-26.3062	26.9775	1.8787	15.1776	-104.1394	45.4500	-184	-149	117	100791	0.44 
102.700	-0.1846	-0.0903	0.5703	27.5879	5.9814	19.1650	3.6200	14.9139	-103.2385	45.4400	-188	-148	117	100791	0.45 
102.787	-0.4570	0.3037	0.9653	20.9961	21.0571	2.2583	6.8994	17.8363	-105.2985	45.4100	-178	-149	115	100790	0.45 
102.867	-0.2134	0.0625	1.2397	13.9771	15.5640	26.4282	9.1241	17.8857	-105.0458	45.4300	-175	-151	110	100789	0.45 
102.933	-0.5518	0.3540	1.3374	-6.4087	44.1895	-5.9204	9.2010	18.8470	-106.2543	45.4300	-174	-154	110	100790	0.45 
103.110	-0.5195	0.1519	0.9082	-23.5596	-23.6206	-9.0942	6.9763	18.9075	-109.3634	45.4200	-170	-150	110	100789	0.45 
103.189	-0.3076	-0.0508	0.6128	-40.8936	7.1411	34.5459	4.7241	18.1165	-109.0833	45.4100	-167	-144	108	100789	0.45 
103.257	-0.2461	-0.0625	0.8521	-14.8315	-14.8315	5.0049	1.9336	18.1000	-108.7811	45.4200	-165	-129	111	100788	0.45 
103.362	-0.0781	-0.1533	1.1782	-13.9771	-7.9956	23.9258	0.9448	16.8256	-108.4241	45.4200	-169	-124	111	100788	0.45 
103.505	-0.8262	-0.1250	0.8862	13.4888	33.5693	27.4048	0.9888	18.2648	-107.6166	45.4200	-164	-119	115	100787	0.45 
103.564	-0.3428	0.1895	0.9946	13.3057	-16.8457	25.4517	3.3289	19.1492	-108.0396	45.4200	-162	-114	114	100786	0.45 
103.725	-0.1865	0.0405	0.4712	16.7236	22.0337	5.9814	4.9109	18.0231	-107.7539	45.4000	-166	-118	113	100786	0.45 
103.778	-0.3682	0.2051	1.0952	2.8687	1.0986	15.1367	6.5369	19.2261	-108.6108	45.3900	-160	-120	106	100786	0.45 
103.928	-0.3354	0.2676	1.3345	8.9722	30.7007	21.7285	8.1464	19.1327	-108.0890	45.4100	-161	-121	111	100785	0.45 
103.990	-0.8398	-0.2393	1.1265	12.6953	-50.9644	28.6255	9.0747	20.6158	-109.2316	45.4000	-152	-117	106	100784	0.45 
104.106	-0.2822	0.2764	0.6416	-29.9072	2.1362	25.8789	8.5089	18.7756	-111.5332	45.4000	-156	-117	106	100784	0.45 
104.187	-0.2646	-0.1431	0.5776	-29.1138	-1.0376	12.8174	4.8450	18.9020	-110.5334	45.3800	-157	-112	106	100784	0.45 
104.323	-0.2759	-0.0991	1.3818	7.8735	-22.7661	-9.3994	2.9279	17.5836	-111.6541	45.4000	-154	-105	109	100784	0.45 
104.395	-0.5830	0.0337	1.4648	-17.5781	30.6396	7.8125	1.4722	18.9954	-114.7028	45.4000	-158	-103	111	100783	0.45 
104.554	-0.2593	-0.0005	0.7148	13.4277	13.4888	5.3101	1.7249	18.5284	-114.8346	45.3900	-155	-105	108	100783	0.45 
104.628	-0.1719	0.0962	0.5029	24.1699	-9.7656	7.6294	4.2682	19.4458	-115.5597	45.3800	-153	-106	107	100783	0.45 
104.732	-0.3438	-0.0571	0.8555	10.0708	26.8555	-13.7939	6.1908	20.3082	-117.0154	45.3700	-152	-110	101	100782	0.45 
104.811	-0.2261	0.2881	1.0332	6.5308	5.4321	9.3384	7.3883	20.9290	-118.8611	45.3800	-152	-113	100	100782	0.45 
104.943	-0.5601	0.1470	1.4761	-5.7983	-0.1831	13.4888	8.4100	21.3519	-117.5922	45.3800	-151	-113	102	100782	0.45 
105.013	-0.0576	0.1367	0.6260	3.9063	-26.8555	-58.3496	8.0914	18.8086	-121.5582	45.3800	-152	-116	101	100781	0.45 
105.169	-0.2041	0.0337	0.5630	-25.8789	-18.0664	-13.4277	6.0535	18.6768	-125.7440	45.3500	-158	-119	101	100781	0.45 
105.327	-0.3394	-0.1182	0.7139	-27.5879	4.0283	25.2075	3.5376	19.1492	-126.0022	45.3600	-162	-122	103	100780	0.45 
105.363	-0.1284	-0.1025	1.1636	-12.1460	-14.2822	30.6396	2.2742	18.0780	-124.1510	45.3700	-158	-112	104	100779	0.45 
105.442	-0.4609	0.0767	1.4243	-4.1504	16.6626	-14.2822	0.7416	18.7866	-125.5408	45.4000	-160	-107	105	100779	0.46 
105.605	-0.3926	0.4331	0.8545	7.3853	-52.0020	37.6587	0.5768	17.9077	-125.6342	45.4000	-160	-103	103	100779	0.46 
105.702	-0.3418	-0.0776	0.8706	17.8223	-19.8975	0.8545	2.0654	16.8695	-123.0524	45.3900	-158	-101	105	100778	0.46 
105.745	-0.3154	0.0322	0.6494	18.1274	30.0293	-0.1221	5.0812	17.5342	-123.3765	45.3900	-161	-104	105	100778	0.46 
105.912	-0.2329	0.1724	1.0576	5.5542	5.4932	-15.5640	6.0645	18.6548	-124.8157	45.3900	-158	-106	101	100776	0.46 
105.969	-0.2456	0.2109	1.2759	8.9722	5.6152	7.1411	6.5369	18.5120	-125.4309	45.4000	-155	-113	95	100777	0.46 
106.155	-0.8042	-0.1509	1.0508	11.5356	-22.9492	-0.5493	8.3221	20.7642	-125.5518	45.4000	-154	-112	95	100777	0.46 
106.242	-0.3843	0.0645	0.8208	-14.5874	-8.4839	8.3618	6.8445	20.8575	-128.2379	45.4000	-153	-114	93	100776	0.46 
106.309	-0.1943	-0.2471	0.5859	-15.8081	-7.1411	-12.0850	4.2737	20.2588	-128.7488	45.3900	-154	-110	94	100776	0.46 
106.385	-0.2856	0.1616	0.9780	-1.3428	-4.9438	-13.9160	2.6697	19.1602	-130.8142	45.3900	-158	-111	97	100775	0.46 
106.568	-0.1743	0.0112	1.1372	-5.1270	-5.7373	-20.0195	1.7084	17.2925	-132.1051	45.4000	-162	-111	93	100775	0.46 
106.647	-0.7881	0.0264	1.1680	-34.3628	9.7046	-1.4038	0.5933	17.8253	-132.1985	45.4100	-162	-107	97	100775	0.46 
106.764	-0.5820	-0.1548	1.1040	11.1694	16.0522	27.7100	-0.3571	20.3027	-129.4904	45.4100	-158	-102	95	100775	0.46 
106.840	-0.1406	0.0894	0.3726	30.1514	23.1323	2.5635	3.6859	20.4675	-128.5016	45.4000	-154	-100	89	100774	0.46 
106.923	-0.2803	0.2686	1.0220	-4.0283	-5.7373	22.4609	6.0040	21.1377	-127.7710	45.4000	-149	-107	86	100774	0.46 
107.008	-0.1519	-0.0752	1.1929	-5.6763	-26.1230	50.4150	6.2732	18.3911	-123.9697	45.4000	-148	-102	85	100774	0.46 
107.177	-0.9058	0.3379	1.2456	25.1465	20.7520	12.9395	7.9047	17.0947	-121.7450	45.4200	-146	-96	88	100773	0.46 
107.247	-0.5723	0.2002	0.9800	-12.4512	10.6812	-5.0659	7.8442	18.4351	-123.2721	45.4200	-142	-93	84	100773	0.46 
107.317	-0.2290	0.0142	0.5508	-25.1465	1.7700	-8.3618	5.1471	17.8308	-124.3982	45.4100	-143	-86	88	100773	0.46 
107.425	-0.2451	-0.0908	0.7734	-13.3667	1.6479	1.4648	2.8839	19.0448	-125.1233	45.4000	-146	-84	87	100773	0.46 
107.603	-0.2744	-0.0371	1.1221	2.1973	1.5259	-17.2119	1.8512	18.4241	-125.7660	45.4000	-146	-83	85	100772	0.46 
107.659	-0.3398	0.2090	1.4385	0.0000	16.2964	-1.5869	1.2195	18.7042	-127.8809	45.3900	-145	-79	91	100772	0.46 
107.759	-0.3066	-0.1201	0.7207	-11.2915	-7.6904	49.0112	1.5546	19.4788	-125.1563	45.4200	-140	-74	87	100771	0.46 
107.850	-0.2344	0.2271	0.6504	17.2729	-7.8125	42.4805	4.0649	19.7534	-121.4429	45.3800	-132	-70	87	100771	0.46 
107.952	-0.2983	0.1758	0.5962	9.7656	10.1318	20.7520	6.7731	20.3687	-118.7347	45.3800	-126	-74	84	100771	0.46 
108.047	-0.3589	0.2788	1.0161	5.4932	7.7515	16.9678	8.4430	21.2311	-117.8174	45.4000	-118	-74	80	100771	0.46 
108.203	-0.3799	0.1963	1.2607	5.4932	4.9438	22.7661	9.9921	20.8795	-116.4111	45.3900	-114	-76	79	100771	0.46 
108.261	-0.4565	-0.1484	0.7788	-2.5024	-36.1328	3.7842	9.8602	21.3409	-117.1033	45.4000	-106	-69	77	100770	0.46 
108.371	-0.4199	0.0146	0.8018	-17.9443	-20.4468	-20.6909	7.7289	21.7200	-120.8826	45.3800	-105	-67	76	100770	0.46 
108.480	-0.5557	-0.0527	0.8857	-23.5596	19.6533	-20.6909	4.4385	22.8955	-123.9697	45.3900	-111	-66	81	100770	0.46 
108.610	-0.2881	-0.1001	0.7593	12.2681	18.7378	-72.4487	0.9943	22.4670	-128.2764	45.3900	-115	-64	83	100770	0.46 
108.687	-0.3760	0.1777	1.0005	22.8271	18.4326	-35.2173	0.5878	23.5712	-134.8462	45.4000	-120	-68	79	100769	0.46 
108.801	-0.4771	-0.3311	1.2319	21.5454	-34.0576	-42.6025	1.7523	23.6371	-136.4392	45.3900	-125	-73	74	100769	0.46 
108.956	-0.6079	-0.1338	0.9795	12.2681	29.0527	-13.5498	2.0160	23.4338	-140.2789	45.3900	-132	-80	73	100768	0.46 
109.008	-0.3325	0.0356	0.6870	38.6963	-17.2729	-16.2964	4.1364	22.4451	-141.6357	45.3800	-137	-89	69	100768	0.46 
109.190	-0.2896	0.1050	0.6479	19.6533	-12.5122	-2.0142	7.7289	21.4618	-141.9983	45.3700	-145	-101	66	100768	0.46 
109.253	-0.2925	0.2217	0.8110	7.9956	-11.1694	7.2021	9.0143	21.5332	-141.4490	45.3800	-150	-108	66	100767	0.46 
109.402	-0.3071	0.1094	1.0303	12.9395	15.5640	0.3662	10.1239	22.7142	-140.0867	45.4000	-145	-112	64	100767	0.47 
109.466	-0.9443	0.2275	1.6655	27.9541	75.8667	0.1221	11.2280	26.5430	-140.1691	45.3800	-137	-114	62	100766	0.47 
109.598	-0.4302	0.2666	0.7764	-20.0195	8.7891	-40.5273	11.2006	28.5864	-142.0642	45.3900	-129	-122	55	100766	0.47 
109.678	-0.2656	-0.0356	0.4380	-10.7422	-15.6250	-43.3960	6.3116	27.7405	-146.9861	45.4000	-126	-117	57	100765	0.47 
109.807	-0.4834	0.1250	0.8652	6.1035	-30.5786	-12.3291	4.7571	26.0211	-149.9854	45.4100	-142	-123	57	100765	0.47 
109.873	-0.4194	-0.0513	0.9932	-6.9580	1.4038	-4.5776	3.9496	24.5764	-149.9634	45.4100	-145	-125	58	100765	0.47 
109.988	-0.1772	0.1450	0.8774	-1.5869	0.1221	40.5884	4.2352	23.2745	-147.4365	45.4000	-150	-122	58	100765	0.47 
110.042	-0.9429	0.4038	1.4810	-17.1509	12.5732	45.4102	6.1139	21.6156	-141.2018	45.4100	-150	-120	60	100764	0.47 
110.225	-0.4736	0.2305	0.6421	5.8594	-0.0610	29.9683	4.8120	21.8903	-140.6030	45.4100	-148	-113	63	100764	0.47 
110.290	-0.4170	-0.0601	0.8184	-33.9355	1.7700	52.0630	6.6687	21.7804	-133.9178	45.4200	-144	-103	69	100764	0.47 
110.413	-0.4067	0.1909	0.9058	5.8594	-7.6904	17.5781	6.4380	21.7639	-130.9735	45.4200	-141	-92	66	100764	0.47 
110.473	-0.3374	0.1704	0.8296	-2.6245	0.0000	13.0615	7.6135	21.0608	-129.8090	45.4400	-139	-94	66	100763	0.47 
110.590	-0.3765	-0.0322	0.9810	4.9438	2.1362	-18.4937	7.5861	21.7969	-129.4739	45.4400	-137	-90	68	100764	0.47 
110.662	-0.5776	0.2944	0.9990	4.8218	9.7656	-23.3765	7.1741	21.7255	-133.1543	45.4600	-135	-93	69	100763	0.47 
110.831	-0.2568	0.2285	0.8306	4.1504	6.1035	-17.4561	8.1079	21.2201	-133.5168	45.4600	-142	-94	66	100763	0.47 
110.900	-0.4326	0.0283	0.9780	-7.7515	10.8032	18.1885	8.2782	21.9177	-133.0389	45.4700	-144	-101	64	100763	0.47 
110.992	-0.3013	0.1260	0.8574	-4.1504	2.6245	6.4697	8.1189	21.7639	-132.1875	45.4800	-139	-100	65	100763	0.47 
111.086	-0.4111	0.0845	0.8853	-9.2163	8.9111	-6.5308	7.3553	22.1814	-132.2205	45.4800	-140	-96	62	100763	0.47 
111.251	-0.4248	0.0371	0.9185	-0.7324	2.9907	-3.2349	6.7786	22.9065	-132.5226	45.5000	-139	-98	63	100764	0.47 
111.304	-0.3994	0.1655	0.9019	1.3428	1.5869	-10.9863	6.4929	23.0438	-133.8574	45.4900	-138	-98	62	100763	0.47 
111.402	-0.4321	0.1270	0.9058	-3.8452	-0.6104	5.2490	6.4929	23.3954	-134.1815	45.5000	-141	-99	63	100763	0.47 
111.501	-0.4189	0.0737	0.9053	1.0986	2.0142	6.6528	6.4600	23.2635	-133.5388	45.5200	-139	-97	65	100764	0.47 
111.611	-0.4150	0.0776	0.9292	1.2817	4.7607	-5.6763	6.3226	23.5272	-133.7036	45.4900	-139	-97	64	100764	0.47 
111.714	-0.3906	0.1143	0.9072	0.5493	-2.0752	1.0986	6.3007	23.6536	-134.0497	45.5200	-133	-97	63	100764	0.47 
111.861	-0.3921	0.0889	0.9043	-1.9531	-0.2441	-0.3662	6.1304	23.5986	-134.1486	45.5300	-135	-98	65	100764	0.47 
111.920	-0.4121	0.0708	0.9263	-0.8545	-1.1597	1.5869	5.8887	23.6481	-134.0936	45.5300	-136	-94	62	100764	0.47 
112.043	-0.3984	0.0776	0.8994	-0.9766	0.4272	2.6855	5.8008	23.6700	-133.9673	45.5500	-135	-95	60	100764	0.47 
112.130	-0.3955	0.0718	0.9106	0.1221	0.3052	0.5493	5.7788	23.6481	-133.7366	45.5600	-137	-90	61	100764	0.47 
112.250	-0.4043	0.0947	0.9023	0.6714	-0.4272	-0.2441	5.7239	23.6755	-133.8794	45.5600	-135	-92	63	100764	0.47 
112.346	-0.4014	0.0894	0.9224	-0.5493	-4.0894	1.2207	5.7349	23.5986	-133.8135	45.5700	-136	-95	65	100764	0.47 
112.444	-0.4097	0.0708	0.9077	1.5869	-1.0376	-2.8076	5.6195	23.5492	-134.0497	45.5800	-134	-93	64	100764	0.47 
112.604	-0.4043	0.1309	0.8877	3.3569	0.4272	2.6245	5.8502	23.4503	-134.2145	45.5900	-135	-93	62	100764	0.47 
112.662	-0.3940	0.1162	0.9092	-0.1221	-0.7935	11.4746	6.7291	23.6755	-133.1268	45.6000	-137	-93	61	100764	0.47 
112.757	-0.3887	0.0928	0.9160	-2.1362	-3.3569	4.2725	6.8719	23.5382	-132.4347	45.6100	-133	-92	62	100765	0.47 
112.937	-0.3491	0.1191	0.8540	-1.7700	-5.1270	12.2070	6.9983	23.1427	-131.7426	45.6200	-135	-93	63	100765	0.47 
113.000	-0.3521	0.0625	0.9053	-1.4648	-3.1738	2.6855	7.0697	22.9834	-131.0175	45.6200	-134	-93	61	100764	0.47 
113.077	-0.3853	0.0869	0.8940	0.6714	-0.6714	-4.9438	6.8335	22.9449	-131.4075	45.6200	-133	-91	61	100765	0.47 
113.244	-0.3892	0.1094	0.9092	2.1973	-1.0376	-7.8125	6.6632	22.9449	-132.2864	45.6300	-134	-91	62	100765	0.47 
113.313	-0.3789	0.1289	0.9106	1.5869	-3.3569	-2.8687	6.7621	22.7252	-132.9236	45.6500	-136	-92	62	100765	0.47 
113.427	-0.3745	0.1147	0.8945	0.4883	-2.6855	-1.9531	6.8445	22.3242	-133.1543	45.6300	-135	-93	64	100765	0.47 
113.483	-0.3916	0.1094	0.9009	-0.7324	0.0610	1.4038	6.8225	22.2858	-133.2971	45.6400	-136	-93	65	100765	0.47 
113.665	-0.4092	0.1089	0.9014	-1.2817	1.7700	4.4556	6.8829	22.3517	-132.9565	45.6700	-139	-98	64	100765	0.47 
113.725	-0.3481	0.1216	0.8955	-1.9531	3.1128	14.2822	7.1906	22.2253	-131.8414	45.6500	-140	-95	66	100765	0.47 
113.873	-0.3696	0.0762	0.9146	-1.7700	-1.5869	0.7324	7.1301	22.0770	-130.9351	45.6700	-134	-92	67	100765	0.47 
113.944	-0.3770	0.1006	0.9141	1.5259	0.4272	-2.6855	7.0587	22.1375	-131.2482	45.6800	-135	-94	64	100765	0.47 
114.063