StartTime: 2017-07-07 11:51:18.845
Time(s)	ax(g)	ay(g)	az(g)	wx(deg/s)	wy(deg/s)	wz(deg/s)	AngleX(deg)	AngleY(deg)	AngleZ(deg)	T(°)	hx	hy	hz	Pressure(Pa)	Altitude(m) 
37.523	-0.2700	0.0327	0.9644	4.7607	-21.3013	-5.7373	5.0867	14.7876	149.6558	45.9000	126	-253	156	100815	0.43 
37.652	-0.1416	0.1392	0.9219	1.8921	2.2583	3.5400	5.5206	13.1726	149.1559	45.8900	128	-255	148	100815	0.43 
37.724	-0.2983	0.0732	0.9756	-5.2490	19.5923	3.4180	5.3119	14.9139	149.9799	45.9000	125	-254	154	100814	0.43 
37.863	-0.2847	0.0610	0.9658	0.4883	1.4038	-0.3662	5.2679	15.3369	149.9634	45.9000	127	-251	159	100814	0.43 
37.938	-0.3447	0.0054	0.9814	0.7935	-5.3101	4.5776	5.3229	15.4468	150.1392	45.9200	128	-253	156	100815	0.43 
38.078	-0.2300	0.0854	0.9263	0.3662	-0.8545	3.1128	5.3613	14.8206	149.8920	45.9200	126	-258	157	100814	0.43 
38.140	-0.2231	0.0571	0.9316	1.5869	6.5918	-10.4370	5.1306	15.2216	149.4965	45.9100	127	-252	158	100814	0.43 
38.267	-0.2988	0.1021	0.9829	0.9766	-1.5259	-6.1035	5.1691	15.4688	148.7659	45.9200	128	-253	164	100815	0.43 
38.334	-0.2593	0.1006	0.9497	-4.2725	7.3853	4.2725	5.1636	15.4907	148.8757	45.9400	130	-251	155	100815	0.43 
38.463	-0.3379	0.0908	0.9639	-1.0376	9.5215	-6.4697	4.4824	16.8475	148.8647	45.9600	130	-249	165	100814	0.43 
38.542	-0.2866	0.0688	0.9780	-1.4648	3.6621	-20.4468	4.0759	16.8365	147.6068	45.9600	134	-250	159	100814	0.43 
38.668	-0.2593	0.1001	0.9600	2.0142	4.8218	10.8032	4.2078	16.6168	147.1234	45.9700	136	-247	161	100814	0.43 
38.750	-0.3008	0.0986	0.9517	-4.0894	-1.6479	8.6670	4.2957	16.9025	148.0078	45.9700	133	-253	160	100814	0.43 
38.879	-0.2783	0.0752	0.9155	0.1221	-10.9863	-1.2207	4.1034	16.3641	148.2990	45.9700	135	-250	156	100814	0.43 
38.958	-0.3359	0.0664	0.9902	0.7935	4.5166	4.3335	4.4220	16.3586	148.5791	46.0000	133	-249	158	100814	0.43 
39.083	-0.2529	0.0220	0.9263	-3.1128	-11.9019	0.4883	4.2792	15.9467	148.7714	46.0000	133	-251	158	100814	0.43 
39.165	-0.2939	0.0723	0.9976	-1.7090	-2.3193	-2.6245	4.0430	15.7928	148.5901	46.0000	129	-251	157	100814	0.43 
39.285	-0.2510	0.0347	0.9375	-2.0142	0.9155	1.7090	3.6859	15.7269	148.3759	46.0000	130	-249	154	100814	0.43 
39.374	-0.2686	0.1001	0.9482	-3.6011	-6.0425	-5.3101	3.4991	15.2875	148.1287	46.0000	130	-251	156	100814	0.43 
39.497	-0.3159	0.0601	0.9766	2.4414	-5.1880	-4.8828	3.3783	14.8865	147.6343	45.9900	131	-249	153	100814	0.43 
39.582	-0.3613	0.1592	0.9854	5.0659	12.2681	-2.9297	3.4827	15.4523	146.8597	46.0000	132	-249	157	100814	0.43 
39.695	-0.2808	0.1060	0.9131	0.6104	1.7700	2.7466	3.5815	15.8533	146.8652	46.0000	135	-248	157	100814	0.43 
39.790	-0.2046	0.0610	0.9126	-0.6104	16.4185	5.3711	3.7463	16.4960	147.5684	46.0000	132	-249	157	100814	0.43 
39.909	-0.3018	-0.0166	0.9785	-2.3804	14.2212	-7.5073	3.5760	18.7866	147.5684	46.0100	139	-253	163	100814	0.43 
40.014	-0.3379	0.0913	0.9624	1.1597	4.0894	4.6997	3.2355	19.2865	146.5686	46.0200	138	-247	163	100814	0.43 
40.133	-0.4106	0.1074	0.9487	-4.1504	-11.5356	10.6812	3.1915	18.9075	146.9806	46.0100	138	-248	164	100814	0.43 
40.205	-0.2114	0.0688	0.8472	-3.5400	-18.0054	9.7046	3.1476	17.0178	148.2825	46.0400	136	-252	160	100814	0.43 
40.320	-0.0981	-0.0288	0.8359	2.8076	5.9814	0.3662	3.3124	16.3531	148.9856	46.0200	130	-255	155	100814	0.43 
40.411	-0.2554	0.0562	0.9009	-1.6479	2.9907	5.4321	3.3728	17.5452	148.9581	46.0200	132	-254	157	100814	0.43 
40.529	-0.3467	0.0850	0.9321	-1.6479	-0.3662	9.2773	3.5541	17.8638	149.5734	46.0300	133	-255	161	100814	0.43 
40.635	-0.3203	0.0562	0.9302	-1.2817	-0.3662	4.6997	3.5815	17.9407	150.1062	46.0500	128	-255	163	100814	0.43 
40.743	-0.3223	0.0938	0.9443	-0.9766	-0.1221	7.1411	3.7189	18.1110	150.4742	46.0500	127	-256	165	100814	0.43 
40.827	-0.3110	0.0845	0.9458	-4.5776	4.0894	10.8032	3.8892	18.0011	151.4520	46.0500	128	-260	159	100815	0.43 
40.943	-0.3633	0.0454	0.9819	-7.8125	-12.7563	4.0283	3.5925	17.7429	152.1277	46.0600	123	-258	159	100814	0.43 
41.035	-0.2451	-0.1860	0.8574	-7.2632	-8.1177	-24.9023	1.8402	16.6003	150.7050	46.0600	121	-259	156	100815	0.43 
41.147	-0.2939	0.1978	1.0576	-16.9678	3.4180	-14.0381	0.1758	16.6113	147.4310	46.0800	124	-248	155	100815	0.43 
41.246	-0.2085	-0.2300	0.9482	-24.4751	9.7046	10.1318	-2.2906	16.6772	148.4418	46.0800	126	-247	152	100815	0.43 
41.358	-0.2061	-0.0308	0.9805	0.6714	7.7515	-15.8081	-3.6804	17.0508	147.5464	46.0900	129	-243	153	100815	0.43 
41.454	-0.1655	-0.1099	1.0376	18.7988	12.3901	-7.5073	-3.1915	17.3969	146.3818	46.1000	130	-240	154	100815	0.43 
41.568	-0.4653	-0.3555	1.3291	8.3618	48.7061	-28.2593	-2.3181	18.5339	144.6680	46.1000	138	-244	159	100814	0.43 
41.716	-0.3477	0.0122	0.7573	8.7280	24.6582	40.0391	-2.7246	18.6658	144.1681	46.0800	141	-241	161	100814	0.43 
41.784	-0.2603	0.0698	0.9092	22.8882	4.7607	34.0576	0.4724	20.8411	148.0188	46.0600	136	-247	166	100815	0.43 
41.998	-0.2095	0.1436	0.5278	12.6953	16.6016	38.3911	4.4110	21.3135	151.4685	46.0500	130	-258	169	100815	0.43 
42.058	-0.3115	0.1982	0.8989	-0.7324	-11.2305	11.2305	5.5646	22.7197	153.6823	46.0600	129	-269	176	100815	0.43 
42.144	-0.2681	0.0142	1.4355	9.8267	10.6812	-11.1694	5.7129	21.8188	153.8635	46.0600	126	-275	177	100815	0.43 
42.194	-0.8320	-0.1455	0.8726	-8.0566	-27.0386	-10.0098	6.6962	22.7307	153.7372	46.0500	127	-275	180	100814	0.43 
42.332	-0.5049	0.1631	0.9141	-21.7896	-24.7803	-28.2593	2.9279	23.4943	148.1561	46.0500	136	-263	179	100814	0.43 
42.398	-0.2432	-0.0454	0.4824	-17.3340	-3.1128	-2.0142	0.0000	21.9067	146.6785	46.0300	137	-254	170	100813	0.43 
42.557	-0.2144	-0.1152	0.9326	-2.3193	-16.3574	-22.0947	-1.6205	20.8246	145.3436	46.0400	137	-252	161	100813	0.43 
42.630	-0.2788	0.1641	0.8213	4.8218	-3.9673	3.6011	-1.8512	19.5447	143.4869	46.0400	136	-246	162	100813	0.43 
42.746	-0.5366	0.1016	1.0005	19.1040	-11.0474	12.7563	-1.3953	20.5005	144.7394	46.0300	137	-248	163	100812	0.43 
42.814	-0.1245	0.0239	0.4023	31.5552	0.7324	-2.4414	1.7194	19.3634	145.6732	46.0200	133	-251	159	100812	0.43 
42.953	-0.3555	0.1426	0.7949	4.4556	27.8931	7.8125	3.9056	22.0386	146.0962	46.0000	139	-256	168	100811	0.43 
43.021	-0.3569	0.0259	1.1509	10.0098	-3.6621	21.0571	5.3064	23.0109	148.1671	46.0400	140	-259	173	100811	0.43 
43.148	-0.5605	0.2876	0.7964	5.5542	-8.6060	-19.7144	6.0919	22.5659	147.7716	46.0100	138	-266	179	100811	0.43 
43.224	-0.4106	0.1865	0.9189	-14.0381	-11.7188	-39.6118	5.5920	22.6318	144.8108	46.0200	143	-258	180	100810	0.43 
43.339	-0.2808	0.0786	0.5615	-41.3818	-20.4468	25.5737	3.2245	21.1926	145.1788	46.0300	140	-253	173	100810	0.43 
43.444	-0.3179	-0.0640	0.7051	-21.4233	8.2397	8.3008	-0.3625	21.4288	146.3104	46.0200	137	-253	166	100810	0.43 
43.563	-0.2129	-0.0054	1.0278	-3.6621	-16.2964	4.3335	-1.6315	19.7424	146.6840	46.0200	133	-256	158	100810	0.43 
43.635	-0.3687	-0.1836	1.1943	-0.3662	-4.3335	-0.7324	-2.6422	18.6383	146.4258	46.0400	128	-256	153	100809	0.43 
43.752	-0.2080	0.3174	0.4375	7.3242	-41.6260	23.8647	-3.1531	18.4845	145.5798	46.0300	130	-247	151	100809	0.43 
43.859	-0.2861	0.1338	0.7676	40.7104	-8.7891	0.3662	-0.9229	19.0283	145.8215	46.0100	130	-252	152	100808	0.43 
43.968	-0.3584	0.0469	0.8154	18.1885	16.4185	-0.9766	2.5488	19.3634	146.4423	46.0000	127	-255	157	100808	0.43 
44.068	-0.2993	0.1162	0.9902	1.4038	-13.6719	12.5732	4.1309	18.8800	147.3102	46.0000	133	-259	163	100807	0.43 
44.190	-0.2231	0.0366	0.9165	14.4043	19.7754	5.6152	5.1910	17.5342	148.5297	46.0000	130	-263	164	100807	0.43 
44.260	-0.4180	-0.0776	0.6523	-7.0190	-22.8882	4.2114	7.2070	20.9125	149.8755	46.0000	128	-266	172	100806	0.43 
44.373	-0.4863	0.0259	0.8916	-31.8604	-17.7612	18.6157	5.0812	22.6263	150.4797	46.0000	129	-270	176	100806	0.43 
44.484	-0.2739	-0.1045	0.5479	-18.2495	-10.9863	8.1177	2.7356	21.1157	151.4740	45.9900	124	-267	170	100806	0.43 
44.598	-0.2095	-0.0928	0.7441	8.5449	-6.1646	4.5776	1.7358	20.2478	151.5674	46.0000	119	-267	163	100806	0.43 
44.691	-0.1616	0.1904	1.0166	9.4604	-18.3105	-8.2397	3.0267	18.8251	150.8368	46.0000	118	-270	163	100805	0.43 
44.789	-0.3784	0.0259	1.2368	-7.6904	19.9585	-11.1084	2.6807	18.9294	150.3534	45.9900	119	-270	162	100805	0.43 
44.899	-0.2690	-0.0322	0.7817	9.5215	6.8970	34.6069	2.2577	19.6216	150.9082	46.0100	121	-266	161	100805	0.43 
45.016	-0.2266	0.1035	0.5293	30.0293	-1.1597	-17.5781	4.2352	19.8468	150.4962	45.9900	119	-273	166	100805	0.43 
45.107	-0.2910	0.3286	0.6787	11.8408	0.4883	-2.6855	6.5533	21.4563	149.4141	45.9800	124	-270	171	100805	0.43 
45.203	-0.3755	0.0845	0.9829	2.8076	5.5542	-8.7280	6.9489	22.2858	149.8370	45.9900	126	-272	175	100804	0.43 
45.315	-0.4443	0.3223	1.2544	9.4604	-19.8975	-5.3711	7.9321	22.4451	149.2383	46.0000	130	-269	182	100804	0.43 
45.418	-0.2964	-0.3379	0.5239	-3.1738	-72.9980	-4.5776	9.0747	20.7697	149.8425	45.9800	126	-276	179	100804	0.43 
45.620	-0.3110	0.2202	0.7275	-23.8647	-11.4746	-0.1831	5.8008	20.4236	145.6622	45.9800	123	-264	177	100804	0.43 
45.683	-0.2749	-0.1992	0.6265	-21.9116	8.0566	-6.8970	2.7136	20.2972	145.2557	45.9900	130	-260	170	100804	0.43 
45.805	-0.2813	0.0034	1.0493	-1.5259	-6.0425	-4.9438	1.1975	20.1544	144.1846	45.9800	128	-258	166	100803	0.43 
45.866	-0.2744	-0.0498	1.2661	-11.3525	8.2397	-12.4512	-0.3900	19.4788	143.0365	45.9900	129	-256	160	100803	0.44 
46.026	-0.7754	-0.0078	1.1255	-18.1274	11.5967	6.6528	-1.4063	21.4124	143.2562	46.0000	134	-253	164	100803	0.44 
46.099	-0.4937	-0.0176	0.8477	13.2446	26.1230	9.8877	-0.2856	24.2688	144.3109	45.9800	136	-254	167	100802	0.44 
46.202	-0.2339	0.2939	0.5474	15.3809	7.8735	18.3716	3.2520	25.2191	146.0687	45.9900	139	-263	179	100802	0.44 
46.251	-0.4604	0.1147	1.0049	6.5918	-1.8921	9.7656	4.7131	26.2628	147.6947	45.9900	133	-266	186	100802	0.44 
46.436	-0.3652	0.0249	1.0059	6.6528	9.9487	19.8364	6.0425	25.3400	149.5184	45.9800	132	-271	187	100802	0.44 
46.516	-0.8149	0.4883	1.2251	11.9019	9.0942	5.0049	6.9269	24.6149	149.5404	46.0000	127	-272	189	100801	0.44 
46.632	-0.6738	0.2275	1.0913	-2.9297	12.2070	-49.9268	5.4877	24.7083	146.6730	45.9800	130	-270	189	100801	0.44 
46.702	-0.2529	-0.1084	0.5581	-27.2217	-12.5122	1.2817	3.7628	22.8406	146.2555	45.9700	131	-267	184	100801	0.44 
46.848	-0.2178	-0.0483	0.6333	17.0898	-28.0151	-31.6162	1.7578	21.8024	143.9813	45.9900	127	-263	178	100800	0.44 
46.919	-0.4121	-0.0229	1.1895	-13.9160	-23.2544	4.8218	1.0602	21.3245	142.2125	45.9800	132	-257	172	100800	0.44 
47.009	-0.2490	-0.1021	0.8408	11.7798	-39.4287	-11.6577	0.3131	18.6823	142.0422	45.9900	131	-254	173	100800	0.44 
47.079	-0.2397	0.0688	0.6655	-0.8545	-33.9966	19.3481	0.0934	20.1434	140.8777	45.9900	135	-254	170	100799	0.44 
47.262	-0.3110	0.3569	0.6621	38.5132	-7.7515	11.3525	1.1646	21.5826	139.8065	45.9500	137	-254	176	100799	0.44 
47.331	-0.4321	-0.0513	0.8877	7.5684	10.6201	19.7144	5.1361	21.5387	143.0914	45.9700	137	-263	182	100799	0.44 
47.451	-0.3667	0.0273	0.9473	0.0610	-3.9063	22.5220	6.2787	21.0168	145.2887	45.9600	130	-267	185	100799	0.44 
47.519	-0.2871	0.1152	1.2593	-0.4272	11.1694	14.3433	7.8113	20.5115	148.4363	45.9700	127	-277	188	100798	0.44 
47.662	-0.7026	-0.0854	1.2026	-6.8970	9.8877	16.7847	7.7344	21.8573	150.2655	45.9700	123	-279	191	100799	0.44 
47.726	-0.5786	0.1279	1.0244	-22.3389	-9.3994	-17.9443	5.4053	23.3899	147.6233	45.9400	122	-277	196	100798	0.44 
47.871	-0.1494	-0.0356	0.4482	-27.4658	-4.2114	4.4556	2.7686	21.2585	147.3981	45.9400	128	-273	186	100799	0.44 
47.956	-0.2827	-0.0415	0.8169	-7.6904	3.0518	3.9673	0.4120	21.7914	146.9696	45.9600	129	-268	181	100798	0.44 
48.026	-0.2373	0.1338	1.2334	-5.7373	-3.9673	-15.1367	-0.3131	21.0114	146.3983	45.9600	130	-270	179	100798	0.44 
48.135	-0.7729	-0.2358	1.0703	-14.6484	29.4800	25.5127	-0.5273	21.8243	147.8046	45.9500	130	-266	176	100797	0.44 
48.261	-0.3882	-0.0005	0.8857	17.4561	18.6768	46.0205	0.9283	20.9509	151.4026	45.9600	123	-272	174	100797	0.44 
48.337	-0.2192	0.0659	0.5264	11.9019	-11.1694	48.5229	4.1144	20.5994	155.7422	45.9600	113	-283	179	100797	0.44 
48.449	-0.3086	0.0771	0.7891	5.4321	1.3428	12.1460	5.6744	20.7751	158.4668	45.9600	105	-294	182	100796	0.44 
48.529	-0.3062	0.1147	0.9575	5.8594	8.9722	13.1226	6.7566	20.9454	159.5929	45.9700	98	-300	182	100796	0.44 
48.693	0.0059	0.4624	0.9443	-10.0708	26.6113	29.0527	8.3221	21.1707	161.8121	45.9600	97	-301	184	100796	0.44 
48.749	-0.7920	0.2783	1.4268	7.8125	23.4375	11.1084	8.9594	26.4276	163.9435	45.9900	96	-303	199	100796	0.44 
48.865	-0.5732	0.0347	0.9243	-49.3164	-9.8877	4.8218	6.9324	26.1310	163.6029	45.9500	97	-304	195	100795	0.44 
48.946	-0.2686	0.0410	0.5117	-34.0576	-20.2637	25.0244	3.7573	24.0656	164.8059	45.9500	93	-302	180	100795	0.44 
49.057	-0.4600	0.0581	0.9268	-11.5356	-1.5869	7.9956	1.7523	23.7415	165.4871	45.9500	85	-305	172	100795	0.44 
49.153	-0.0537	0.0142	0.8076	-9.8877	-27.2217	27.5879	1.3568	20.8191	166.8658	45.9400	78	-302	165	100794	0.44 
49.301	-0.3511	0.2432	1.2251	-19.0430	7.9956	44.2505	1.2744	20.9125	169.7552	45.9500	71	-303	161	100794	0.44 
49.364	-0.8110	0.3916	1.3203	-34.7290	12.1460	73.8525	1.9885	19.6545	176.2592	45.9700	56	-310	157	100794	0.44 
49.478	-0.3569	-0.0337	0.3320	-22.9492	11.1694	130.8594	1.4392	19.6271	-174.8914	45.9800	33	-312	146	100794	0.44 
49.568	-0.3306	0.0918	0.8354	13.1226	-29.6021	49.7437	3.7683	20.0995	-167.4097	45.9800	0	-319	142	100794	0.44 
49.710	-0.2314	0.1226	0.8799	-10.0098	5.6763	68.8477	6.7676	18.4900	-161.9220	45.9600	-25	-323	139	100794	0.44 
49.777	0.0571	0.0908	0.8584	-25.5127	-1.7090	27.7710	6.7456	16.8311	-157.5494	45.9800	-45	-325	138	100794	0.44 
49.872	-0.4741	0.3315	1.5254	-11.2915	12.5732	-3.1128	5.0262	18.2593	-157.7637	45.9800	-55	-322	134	100794	0.44 
49.968	-0.6265	0.1709	0.8403	12.5122	-11.5967	-16.5405	5.0592	17.6495	-159.7906	45.9800	-52	-325	132	100794	0.44 
50.108	-0.4824	0.2207	0.8994	-9.4604	-9.8267	-0.1221	5.6744	17.8638	-162.8613	45.9800	-39	-326	136	100795	0.44 
50.177	-0.2715	0.0063	0.7368	-31.0669	-22.5220	67.8711	4.9823	16.1993	-160.1862	45.9900	-44	-324	135	100795	0.44 
50.293	-0.3013	0.0103	1.0034	-23.9868	5.2490	70.4956	4.2462	15.8203	-153.9075	45.9900	-69	-323	127	100795	0.44 
50.384	-0.2227	0.2080	0.9214	-13.7329	13.2446	51.9409	3.9001	15.5237	-149.0680	45.9900	-89	-319	123	100796	0.44 
50.496	-0.0259	0.2637	0.9141	-12.4512	-13.0615	63.2935	3.8782	14.6063	-144.6844	45.9900	-105	-310	115	100796	0.44 
50.669	-0.5903	-0.1509	0.6362	-49.6216	-14.4043	89.5386	1.4832	16.3202	-139.8065	45.9900	-124	-297	112	100797	0.44 
50.722	-0.4526	-0.2534	0.8745	4.2725	-8.5449	48.4009	2.9608	16.9244	-131.6876	45.9900	-148	-283	105	100798	0.44 
50.903	-0.3433	0.6104	0.8218	-2.0142	-11.1694	28.5034	5.8228	16.4136	-130.8252	46.0000	-161	-278	105	100798	0.44 
50.960	-0.1392	0.0732	0.8457	-24.2920	8.1177	69.5801	6.5918	14.9469	-124.9695	46.0300	-171	-268	108	100798	0.44 
51.097	-0.2910	-0.0107	1.2861	-25.8789	5.4932	22.7661	4.5154	15.0128	-122.5690	46.0000	-181	-256	102	100798	0.44 
51.155	-0.7324	0.3022	1.1348	8.8501	7.9346	63.9038	5.1965	15.4248	-121.2891	46.0100	-185	-246	104	100798	0.44 
51.282	-0.6011	0.2007	1.1328	-16.7236	1.4038	58.7769	7.0587	15.5731	-117.2186	46.0200	-189	-234	102	100797	0.44 
51.331	-0.3330	-0.0786	0.9385	-41.6870	11.4136	78.0029	5.5865	14.8535	-111.6156	46.0000	-195	-216	107	100796	0.44 
51.507	-0.2139	-0.0308	0.8418	-31.1279	-2.5024	41.8701	2.6587	15.1996	-107.7264	46.0200	-198	-196	102	100795	0.44 
51.570	-0.2764	0.0146	1.1519	-27.4048	-2.2583	29.9683	1.2140	14.1724	-105.4358	46.0000	-199	-178	103	100795	0.44 
51.714	-0.3599	-0.1201	1.2466	-45.4712	38.6963	42.5415	-0.1923	11.9751	-101.5851	46.0300	-199	-165	106	100794	0.44 
51.784	-0.7256	0.0742	1.3457	13.2446	29.7852	62.5000	-0.2582	15.6775	-98.7122	46.0300	-199	-149	107	100794	0.44 
51.925	-0.1631	-0.1426	0.5903	28.1372	-3.6011	34.7290	3.7793	14.2987	-95.5096	46.0000	-189	-138	108	100793	0.44 
52.006	-0.1895	0.1914	0.5679	-4.0283	30.7617	30.7617	6.9269	14.8975	-94.2847	45.9900	-184	-137	108	100793	0.44 
52.126	-0.2007	0.2808	1.1880	11.8408	7.1411	44.6167	8.1573	17.2980	-92.8070	45.9900	-175	-131	101	100792	0.44 
52.180	-0.5557	0.2334	0.6992	6.1646	27.4658	3.0518	9.6075	16.7542	-92.6257	45.9900	-170	-121	102	100791	0.44 
52.305	-0.4971	-0.0547	0.9722	-33.8135	-16.7847	-10.6201	8.7396	18.3527	-94.1638	45.9800	-164	-120	99	100791	0.45 
52.369	-0.2549	0.0313	0.5952	-1.7090	-7.2632	-21.7896	5.9106	17.6111	-98.3386	45.9700	-168	-116	99	100790	0.45 
52.542	-0.2764	-0.0601	1.0298	-16.9067	-13.1836	23.8647	5.9766	17.4683	-99.4263	45.9400	-165	-116	101	100790	0.45 
52.606	-0.1494	0.1104	1.0708	-24.4141	-0.6714	23.9258	4.3011	15.6995	-99.6460	45.9600	-167	-108	101	100790	0.45 
52.721	-0.5933	-0.3496	1.2026	-10.9253	-6.5308	30.6396	2.7686	16.5289	-97.3334	45.9400	-161	-96	105	100789	0.45 
52.804	-0.3262	-0.0483	0.8682	19.9585	3.7842	-5.1880	5.2405	16.1499	-98.1683	45.9300	-158	-92	105	100788	0.45 
52.912	-0.1514	0.1812	0.5791	13.4277	19.8364	-5.1880	7.8168	15.9796	-100.8600	45.9100	-164	-101	99	100788	0.45 
52.993	-0.3438	0.2388	1.0981	-1.0986	10.9863	7.1411	8.6517	17.6440	-102.4255	45.9200	-156	-102	94	100788	0.45 
53.150	-0.2222	0.1245	1.2847	7.6904	1.7090	-6.2866	9.0088	17.2101	-103.1946	45.9200	-159	-105	95	100788	0.45 
53.206	-0.6992	0.1484	1.0181	6.8970	-2.3193	25.8179	10.1624	19.1217	-105.0018	45.9300	-154	-106	95	100788	0.45 
53.362	-0.4360	0.0884	0.8848	-25.3906	-2.0142	11.6577	8.1848	20.2972	-106.6333	45.9300	-153	-105	93	100787	0.45 
53.429	-0.2236	-0.0684	0.5923	-34.7290	12.5122	17.0898	5.6854	19.6490	-106.7596	45.9300	-148	-99	93	100787	0.45 
53.537	-0.2764	0.0005	1.0894	-17.3340	-15.6250	2.6855	2.5378	19.6490	-107.6660	45.9400	-145	-89	96	100787	0.45 
53.623	-0.3481	0.0400	1.4888	-10.7422	15.6860	-21.9116	0.6921	18.4406	-110.0006	45.9200	-150	-86	97	100786	0.45 
53.745	-0.6704	-0.1021	0.9214	-13.3667	22.2778	4.5776	-0.4065	20.0775	-111.2476	45.9200	-147	-82	98	100786	0.45 
53.839	-0.3237	0.1338	0.8472	19.1650	-3.2349	-10.6201	1.1096	19.8468	-112.9669	45.9100	-149	-83	96	100785	0.45 
53.959	-0.1733	0.3628	0.6025	12.0850	-4.0894	10.9253	2.4005	17.6550	-115.3345	45.9200	-156	-87	97	100785	0.45 
54.162	-0.2563	-0.0601	0.9995	13.7939	-15.3198	13.0005	3.9166	17.1332	-114.3073	45.9000	-155	-88	96	100784	0.45 
54.220	-0.3228	0.1221	1.4126	24.9023	20.9961	16.2964	6.6193	16.6663	-113.5712	45.9000	-154	-92	95	100784	0.45 
54.242	-0.7822	0.1860	1.3018	9.8267	59.8755	-4.0894	9.1022	18.1769	-113.5767	45.9400	-155	-95	96	100783	0.45 
54.351	-0.5386	0.1338	1.0112	-20.4468	-2.9907	-31.4331	6.9543	20.6653	-117.7954	45.9300	-150	-94	92	100783	0.45 
54.560	-0.1650	-0.1938	0.4648	-27.0386	-17.8833	-36.8652	3.1091	18.7537	-121.1243	45.9200	-151	-95	89	100783	0.45 
54.614	-0.1069	-0.1743	0.8555	5.3711	-19.4092	-48.1567	-0.3900	18.3801	-126.5955	45.9200	-160	-97	95	100782	0.45 
54.751	-0.1143	0.0459	0.9668	5.1880	-19.9585	-13.9771	-0.0604	17.0068	-130.0781	45.9200	-167	-102	95	100782	0.45 
54.814	-0.0757	-0.1250	1.2100	-18.6768	-49.1333	9.7046	-1.4337	14.8260	-129.6881	45.9400	-172	-105	97	100781	0.45 
54.969	-0.6172	-0.0522	0.9258	4.0283	-18.9209	18.3105	-3.0817	15.5511	-129.1168	45.9300	-173	-102	98	100782	0.45 
55.033	-0.3154	0.1650	0.7827	26.3062	15.3198	8.7280	-0.8514	17.2046	-127.9248	45.9100	-168	-99	97	100781	0.45 
55.158	-0.2295	0.2236	0.7764	25.5737	7.6294	27.5879	2.9169	17.6935	-126.1066	45.9100	-164	-106	90	100781	0.45 
55.210	-0.3340	0.1406	0.8989	-1.8311	7.0801	46.6309	5.8557	17.7924	-122.1515	45.9100	-159	-104	89	100780	0.45 
55.358	-0.1396	-0.0122	1.1294	0.7935	-32.2876	16.7236	6.0809	15.8313	-119.2236	45.9200	-155	-98	92	100780	0.45 
55.413	-0.4194	0.4233	1.4951	16.0522	59.6924	1.9531	7.1906	15.1666	-119.5697	45.9100	-159	-97	92	100779	0.45 
55.575	-0.2319	-0.0879	0.7275	-14.5874	16.5405	-31.7993	7.4432	16.6388	-119.3225	45.9200	-152	-93	91	100779	0.46 
55.637	-0.1797	0.0146	0.5908	-19.4092	-26.4893	-19.8975	4.5264	16.9409	-122.6074	45.9100	-156	-92	89	100778	0.46 
55.789	-0.3193	-0.1313	0.7480	-9.7046	-6.7749	-3.8452	2.3181	16.9519	-124.4641	45.8900	-156	-92	87	100778	0.46 
55.853	-0.4106	-0.2144	1.2031	-12.0850	-16.2964	7.4463	0.8624	16.3696	-124.5300	45.9100	-155	-87	94	100778	0.46 
55.978	-0.1504	0.0771	1.2871	-20.6299	38.2690	-12.5122	-0.6372	14.9963	-124.6674	45.9100	-161	-89	95	100778	0.46 
56.045	-0.6753	-0.1812	1.2178	-1.8921	19.8364	-28.1982	-2.5818	18.1934	-124.6838	45.9300	-156	-78	94	100778	0.46 
56.181	-0.5322	0.1563	0.8188	40.2832	-4.3335	-23.4375	0.1044	18.0450	-127.3206	45.9200	-154	-84	90	100778	0.46 
56.241	-0.1230	0.0625	0.5396	30.6396	15.6250	-3.6011	4.2957	17.2815	-128.5400	45.9000	-159	-96	89	100777	0.46 
56.373	-0.2920	-0.0200	1.0288	44.6777	9.7046	-7.8125	8.7836	18.1439	-128.5291	45.9000	-156	-109	85	100777	0.46 
56.445	-0.1836	0.2896	0.8887	5.9814	-8.9111	-12.2681	10.7281	17.6550	-131.4020	45.8900	-162	-118	82	100776	0.46 
56.607	0.0005	0.2866	0.8999	-2.5024	-1.4038	7.2021	11.1456	16.8970	-131.5887	45.9000	-160	-119	79	100776	0.46 
56.664	-0.3608	0.1426	0.6826	-9.5825	-16.9678	-5.2490	12.0135	18.0231	-130.2155	45.9100	-157	-117	78	100776	0.46 
56.802	-0.3501	0.1040	0.7358	-45.8984	-26.1230	5.0659	8.6847	18.2867	-131.3580	45.9100	-156	-113	78	100775	0.46 
56.861	-0.0186	-0.0601	0.3345	-30.8228	43.7622	-6.6528	4.2023	18.4076	-131.2701	45.9000	-155	-103	78	100775	0.46 
57.005	-0.2129	-0.0303	0.9224	6.9580	-10.6201	-13.3057	2.5159	20.9564	-131.9458	45.9000	-143	-93	79	100774	0.46 
57.069	-0.1890	-0.0469	1.0698	-8.9111	-5.1270	-33.2031	1.1481	20.0500	-134.5166	45.9000	-150	-94	75	100774	0.46 
57.205	-0.6733	0.1675	1.1309	-22.1558	41.6260	26.9775	-0.2417	20.3247	-135.1978	45.9100	-151	-93	79	100774	0.46 
57.277	-0.4805	-0.2852	0.9648	7.9346	-2.0752	21.4233	0.0934	21.6870	-130.3473	45.9000	-143	-83	76	100773	0.46 
57.424	-0.2070	0.2007	0.5259	11.9019	-24.1699	31.3721	2.9279	20.5609	-128.9355	45.8800	-140	-82	73	100773	0.46 
57.485	-0.3037	0.1577	1.0020	6.5308	10.6812	20.0806	4.8669	19.7260	-126.4801	45.8800	-139	-86	72	100773	0.46 
57.622	-0.1777	0.1729	0.9170	-7.3242	6.4697	35.7056	6.0095	19.4293	-123.9587	45.8800	-137	-79	71	100772	0.46 
57.693	-0.3457	0.1372	1.5288	3.1128	19.7144	-4.0894	6.3391	20.6873	-121.4813	45.8800	-128	-75	72	100772	0.46 
57.808	-0.4971	-0.1860	0.8091	-12.7563	12.2070	-2.1973	7.0697	22.6648	-120.5090	45.9000	-118	-70	68	100772	0.46 
57.994	-0.3276	0.1187	0.6934	-31.0669	-15.4419	4.6997	4.6692	22.9230	-122.4152	45.8700	-113	-67	69	100772	0.46 
58.054	-0.2974	-0.3872	0.7432	-7.5684	-18.4326	-2.5024	2.2412	21.8683	-121.3879	45.8700	-116	-55	72	100772	0.46 
58.204	-0.2856	0.2021	0.8521	3.7231	-7.8735	-23.4985	1.5656	19.9622	-123.4424	45.8700	-122	-53	69	100772	0.46 
58.269	-0.2998	0.0332	1.2373	-21.4233	8.4839	-0.7324	0.3735	19.5392	-123.9972	45.8800	-128	-52	69	100771	0.46 
58.425	-0.6924	-0.0439	1.3501	-13.2446	26.3672	7.0801	-0.9778	19.9841	-122.3987	45.8800	-125	-49	72	100771	0.46 
58.474	-0.5269	0.0562	0.9390	13.7329	-3.1738	46.8140	1.0931	19.9951	-118.6469	45.9000	-123	-42	69	100770	0.46 
58.630	-0.2090	-0.0176	0.6069	18.9209	-30.1514	37.6587	4.7076	17.8583	-113.8678	45.8600	-117	-42	66	100770	0.46 
58.707	-0.3911	-0.0488	0.9463	13.3057	12.9395	8.1787	6.5643	17.3859	-111.8079	45.8700	-118	-42	60	100770	0.46 
58.811	-0.1465	0.2236	0.8706	8.7891	6.5308	-13.5498	7.8662	17.2595	-113.3020	45.8500	-114	-46	56	100770	0.46 
58.868	-0.2524	0.1855	1.3027	4.4556	9.5215	-20.0195	8.3441	18.8580	-114.7522	45.8500	-118	-47	52	100769	0.46 
59.023	-0.6450	0.2056	1.5981	8.4839	38.8794	24.1089	9.1296	19.2755	-113.7195	45.8500	-118	-45	50	100769	0.46 
59.104	-0.7661	0.4141	1.1401	-2.9907	32.6538	-25.8179	8.5199	21.5387	-115.7904	45.8400	-115	-48	46	100769	0.46 
59.225	-0.2964	-0.0527	0.6924	-21.1792	-14.4043	3.0518	6.4874	19.7809	-116.0651	45.8600	-119	-46	43	100769	0.46 
59.292	-0.3579	0.0464	0.6943	-5.5542	-13.5498	1.2207	4.3176	19.1602	-115.9607	45.8500	-126	-43	45	100769	0.46 
59.449	-0.2217	-0.0215	0.8555	-2.8687	-14.7705	-20.2637	3.0103	17.9077	-116.3892	45.8500	-130	-43	46	100768	0.46 
59.534	-0.1157	-0.0820	0.9395	-1.4648	-1.1597	-7.6294	2.3181	17.3035	-117.2626	45.8600	-140	-41	43	100768	0.46 
59.646	-0.1646	0.0225	0.8247	-0.7935	6.0425	1.0986	2.0929	17.3419	-117.5977	45.8600	-138	-47	46	100768	0.46 
59.717	-0.5151	0.0859	1.5024	-19.2871	2.8687	33.8135	2.6257	18.7317	-115.2411	45.8700	-134	-47	46	100767	0.46 
59.838	-0.3223	0.1099	0.4307	20.8740	17.3340	-13.6108	1.2964	18.5614	-116.6583	45.8500	-131	-45	46	100767	0.47 
59.902	-0.4380	0.0132	1.0806	9.8877	-62.3779	-4.0283	2.8125	19.3304	-115.9497	45.8600	-128	-48	43	100766	0.47 
60.048	-0.4868	0.1572	0.9907	27.3438	9.0332	-25.5127	3.7738	17.8967	-118.2294	45.8700	-140	-55	46	100766	0.47 
60.117	-0.2900	0.1367	0.8931	7.6904	-6.4087	-14.4653	5.4272	17.4408	-119.9927	45.8800	-148	-64	43	100766	0.47 
60.259	-0.1743	0.0786	0.8809	-0.6104	-0.6714	-25.0854	5.0098	16.8805	-121.8109	45.8600	-153	-68	41	100766	0.47 
60.326	-0.4644	0.0552	1.0859	19.5313	-15.6250	17.4561	4.9493	18.4735	-123.1732	45.8600	-152	-74	45	100766	0.47 
60.443	-0.2681	0.1367	0.8149	1.2207	2.2583	-17.4561	6.5204	18.5779	-123.4369	45.8800	-152	-80	34	100766	0.47 
60.660	-0.3677	0.0913	0.8730	-11.5356	-0.9766	0.1831	5.5811	18.9130	-123.8763	45.8700	-155	-82	39	100766	0.47 
60.726	-0.3398	-0.0254	0.8945	-1.3428	1.3428	10.3760	5.0153	19.4678	-123.2611	45.8800	-156	-79	39	100765	0.47 
60.738	-0.2969	0.1182	0.9214	1.0376	-7.3853	-9.1553	4.6417	19.3414	-123.5303	45.8900	-150	-76	38	100765	0.47 
60.857	-0.3745	0.0386	0.9653	-1.5869	-0.1831	7.5684	4.5099	19.3195	-123.2996	45.8800	-154	-79	38	100765	0.47 
60.942	-0.3013	0.1230	0.9243	1.1597	-1.0376	0.8545	4.5319	19.0997	-122.7557	45.9000	-154	-75	38	100765	0.47 
61.055	-0.3623	0.0640	0.9438	0.3052	2.5635	8.7280	4.6857	19.5337	-122.0691	45.9000	-156	-78	35	100765	0.47 
61.210	-0.3535	0.0840	0.9409	1.4038	1.9531	-1.7700	4.7736	19.7754	-121.8219	45.9100	-150	-74	37	100765	0.47 
61.271	-0.3442	0.0786	0.9219	-1.0986	2.8076	7.1411	4.9164	19.9402	-121.5857	45.9300	-148	-75	37	100765	0.47 
61.466	-0.3560	0.0742	0.9224	-2.3804	0.3052	1.8921	4.8395	20.1379	-121.0364	45.9400	-145	-74	37	100766	0.47 
61.546	-0.3389	0.0571	0.9063	-0.9155	0.7935	5.1270	4.8779	20.1434	-120.5420	45.9300	-147	-73	40	100766	0.47 
61.616	-0.3477	0.0723	0.9229	0.7935	0.7935	-5.3101	4.7791	20.2203	-120.6683	45.9400	-146	-76	39	100766	0.47 
61.686	-0.3354	0.0874	0.9116	1.5869	0.4883	-5.5542	4.7241	20.1874	-121.2946	45.9500	-147	-77	39	100765	0.47 
61.866	-0.3491	0.0806	0.9458	0.1831	0.4272	-0.1221	4.7241	20.2753	-121.5912	45.9700	-146	-77	35	100765	0.47 
62.083	-0.3608	0.0874	0.9473	-0.6714	-1.2817	1.8311	4.7241	20.3192	-121.5417	45.9900	-148	-79	38	100766	0.47 
62.161	-0.3599	0.0767	0.9360	-0.5493	-0.0610	6.4697	4.9054	20.2423	-121.1407	46.0000	-147	-77	36	100766	0.47 
62.173	-0.3540	0.0796	0.9331	0.4272	-1.7700	1.7090	4.9548	20.1489	-120.9045	45.9900	-145	-76	37	100766	0.47 
62.279	-0.3384	0.0859	0.9126	0.0000	-1.8921	1.0376	5.0153	19.9951	-120.8331	46.0100	-147	-76	38	100766	0.47 
62.346	-0.3516	0.0874	0.9272	-0.1831	0.3052	1.1597	5.0427	19.9841	-120.7782	46.0000	-144	-75	42	100766	0.47 
62.495	-0.3208	0.1108	0.9126	-0.9766	2.6245	6.0425	5.1471	19.9457	-120.5585	46.0200	-145	-73	37	100766	0.47 
62.579	-0.3447	0.0752	0.9326	-1.8921	0.9766	8.5449	5.2734	20.1270	-119.7565	46.0300	-140	-73	36	100765	0.47 
62.645	-0.3433	0.0684	0.9165	-0.6104	0.4883	4.4556	5.3503	20.0995	-119.1962	46.0300	-141	-72	37	100765	0.47 
62.725