39 steps
StartTime: 2017-07-11 11:44:32.425
Time(s)	ax(g)	ay(g)	az(g)	wx(deg/s)	wy(deg/s)	wz(deg/s)	AngleX(deg)	AngleY(deg)	AngleZ(deg)	T(°)	hx	hy	hz	Pressure(Pa)	Altitude(m) 
14.441	-1.1040	0.0425	1.8755	-1.3428	-2.9297	4.0283	2.0105	30.4926	142.2894	42.9000	99	-283	295	100908	0.35 
14.598	-1.1118	0.0244	1.8701	-5.1880	-0.4272	4.3335	1.9556	30.3772	142.7673	42.9100	94	-281	290	100908	0.35 
14.629	-1.1304	-0.0972	1.8306	-7.4463	1.4648	-15.6860	0.8569	30.4376	142.2510	42.9100	95	-279	292	100908	0.35 
14.707	-1.0425	0.0205	2.0483	7.5684	-3.6011	-18.1274	-0.1483	30.5969	139.8395	42.9300	99	-273	290	100908	0.35 
14.832	-0.9912	-0.0239	1.8354	-8.0566	-9.9487	-4.8218	-0.9393	28.8556	138.7738	42.9200	100	-269	284	100908	0.35 
14.911	-1.0347	-0.0801	1.8643	-1.1597	1.8921	-11.2305	-1.6095	28.6798	138.3893	42.9200	96	-268	279	100909	0.35 
15.040	-0.9561	-0.0215	1.8467	2.4414	0.9155	-4.4556	-2.0215	28.4161	137.3840	42.9500	98	-266	280	100909	0.35 
15.118	-0.9395	-0.0151	1.8677	2.2583	-0.5493	2.6855	-1.6864	28.6249	137.4390	42.9400	100	-265	281	100908	0.35 
15.290	-0.9189	-0.0176	1.8950	5.3101	2.9907	16.2964	-0.8459	28.6249	138.5760	42.9400	97	-268	282	100909	0.35 
15.431	-0.8965	-0.0464	1.7891	-0.2441	13.4888	51.5747	1.4886	28.5370	142.7563	42.9500	86	-277	282	100909	0.35 
15.462	-0.9819	0.1758	1.5718	16.2354	-12.1460	-14.2212	0.7306	30.9155	142.4817	42.9500	84	-284	287	100909	0.35 
15.618	-1.3804	-0.1147	2.0605	1.1597	4.5166	11.7188	3.2300	33.8599	146.6675	42.9400	81	-289	294	100909	0.35 
15.681	-1.2212	0.1899	1.8364	18.9209	-9.7046	-10.9863	4.0100	32.9755	145.3436	42.9400	78	-292	296	100909	0.35 
15.861	-1.1826	0.1099	1.8525	-2.5024	-16.4795	9.4604	4.4220	31.6846	145.4755	42.9300	76	-293	297	100908	0.35 
15.885	-1.2192	-0.0620	1.7100	4.1504	4.6997	10.3760	4.7900	30.5804	146.7279	42.9200	63	-295	290	100908	0.35 
16.057	-1.1006	0.1836	1.8721	9.0942	-15.4419	-44.4336	3.6639	31.6516	143.9813	42.9100	66	-296	296	100908	0.35 
16.104	-1.1240	0.1528	1.8530	3.2349	-6.2866	-27.4658	3.1915	30.9814	141.7291	42.9200	72	-290	292	100908	0.35 
16.244	-1.0815	0.1523	1.8643	-2.7466	-13.9771	-9.8267	1.9995	30.2454	139.6527	42.9400	78	-289	290	100908	0.35 
16.307	-1.1899	0.0723	1.9043	2.9907	1.1597	-5.7983	1.7249	29.7070	139.1583	42.9200	80	-281	289	100908	0.35 
16.479	-1.0625	0.1714	1.8379	3.9673	8.7280	-11.7798	1.8732	30.3113	138.7299	42.9300	80	-276	287	100907	0.35 
16.541	-1.1431	0.0854	1.9229	-2.6245	5.0659	-3.8452	1.7139	31.0913	138.3289	42.9200	84	-273	293	100907	0.35 
16.666	-1.1460	-0.1104	1.8433	-10.7422	10.6812	-11.4136	0.5273	31.7285	137.9114	42.9400	83	-269	289	100907	0.35 
16.713	-1.1206	0.0796	1.9780	-10.6812	3.5400	-8.6670	-1.2524	32.5195	136.0657	42.9500	90	-266	292	100908	0.35 
16.885	-1.0928	-0.0913	1.8345	-23.4375	6.0425	8.9111	-2.5708	32.6404	137.1094	42.9600	88	-260	292	100907	0.35 
16.948	-1.0635	-0.1064	1.8477	-11.3525	8.3618	-0.1831	-3.8342	33.1787	137.8235	42.9600	86	-257	287	100908	0.35 
17.089	-1.0571	-0.1035	1.8599	-2.1362	10.1929	1.8311	-4.5428	33.7555	137.4719	42.9600	89	-249	288	100908	0.35 
17.151	-1.0410	-0.1074	1.8979	0.4883	8.5449	10.2539	-4.0210	34.1949	137.9663	42.9400	88	-252	288	100908	0.35 
17.292	-0.9985	-0.0186	2.1641	2.9297	0.6714	4.3335	-3.2300	33.9478	138.4991	42.9700	86	-252	290	100908	0.35 
17.510	-1.2886	0.1187	1.7734	11.5967	-21.9727	-15.2588	-3.9221	33.6237	137.5269	42.9600	85	-252	289	100908	0.35 
17.557	-1.4595	-0.1289	2.0264	9.8267	0.9766	23.1323	-1.0767	33.9093	141.4600	42.9600	76	-257	289	100908	0.35 
17.667	-1.2051	0.1230	1.7612	26.2451	-9.6436	-13.5498	0.7745	32.8821	140.2899	42.9500	72	-259	290	100909	0.35 
17.698	-1.1187	0.1577	1.8188	6.4697	-1.8311	-11.4136	1.6095	32.5854	138.6804	42.9700	72	-257	295	100908	0.35 
17.879	-1.0308	0.0210	1.8613	-13.2446	1.3428	-20.0195	0.5054	32.4042	137.5708	42.9700	77	-251	297	100908	0.35 
17.923	-0.9819	0.0391	2.0195	-3.4180	-22.2778	-24.2310	-1.0931	31.2836	135.5438	42.9900	76	-246	295	100908	0.35 
18.079	-1.5200	0.2402	1.9043	13.1226	-5.6763	-38.6353	-2.7795	30.6793	131.3141	42.9700	78	-237	294	100908	0.35 
18.110	-1.2427	0.2183	1.8804	-3.4790	3.7231	-14.4043	-3.3948	30.9320	128.6829	42.9900	86	-226	299	100908	0.35 
18.282	-1.0776	-0.1729	1.7324	-17.3950	-10.5591	28.4424	-3.3673	30.2344	131.9733	42.9800	88	-223	297	100908	0.35 
18.329	-1.0200	-0.0845	1.8008	-1.8311	-4.2725	8.1177	-3.2245	30.0201	133.8574	42.9800	79	-225	294	100909	0.35 
18.532	-1.0513	0.0571	2.0205	4.3335	-2.6245	11.5967	-2.1753	29.5862	135.0220	42.9800	78	-228	289	100909	0.35 
18.641	-1.1196	0.2065	2.3032	-7.9346	17.9443	34.5459	-0.3571	29.2456	138.3179	42.9800	72	-232	289	100908	0.35 
18.704	-0.9932	0.1582	1.3584	-1.9531	7.5684	44.4336	-0.2252	28.4985	141.9928	42.9700	65	-235	285	100908	0.35 
18.751	-1.1060	-0.0562	1.6538	34.4849	-26.7944	-16.6016	1.7578	29.3829	143.7067	42.9900	58	-241	291	100908	0.35 
18.945	-1.0278	0.2085	1.6792	15.8081	-1.6479	-20.5688	3.2410	29.1742	141.0205	42.9700	62	-243	292	100908	0.35 
19.054	-0.9473	0.0283	1.7290	-7.4463	17.7612	-23.0713	2.7466	30.5145	139.5319	42.9900	66	-239	299	100908	0.35 
19.085	-0.9961	0.1079	2.1299	1.6479	-13.1226	-54.1382	-0.1428	31.3165	135.0165	42.9900	75	-235	302	100908	0.35 
19.179	-1.4927	0.3032	1.8213	16.0522	-18.7988	-16.4795	-1.5051	31.0254	130.7153	42.9600	86	-220	305	100908	0.35 
19.335	-1.3223	0.4009	2.0845	-5.3101	-14.0381	-1.6479	-1.3953	31.0803	129.7870	42.9700	89	-213	307	100908	0.35 
19.382	-1.0474	-0.0796	1.7422	-18.4937	-13.6108	50.3540	-0.4944	29.2346	135.2417	42.9800	83	-218	300	100908	0.35 
19.523	-0.9619	-0.1265	1.7427	-7.8125	0.0000	21.4233	0.1593	28.6359	139.4440	42.9500	73	-229	299	100908	0.35 
19.585	-0.9780	-0.1177	1.9185	9.2773	30.0903	12.5732	1.0767	30.2728	141.4490	42.9700	64	-232	299	100908	0.35 
19.726	-1.0415	0.6113	2.0264	0.4272	1.4038	23.1323	1.2360	31.8384	140.8502	42.9900	70	-234	309	100908	0.35 
19.889	-1.2461	-0.0239	1.5020	-7.5073	-0.3052	37.8418	3.0157	32.1680	146.3214	42.9600	67	-238	310	100908	0.35 
19.921	-1.1240	-0.1060	1.6470	22.1558	-21.4844	-29.7241	4.7516	31.4484	147.8430	42.9500	58	-249	309	100908	0.35 
20.108	-1.1230	0.1733	1.6978	3.2959	0.1831	-20.4468	4.3341	31.2671	144.0308	42.9600	61	-248	310	100908	0.35 
20.155	-0.9512	-0.0425	1.8936	-9.2773	-11.1084	-18.4326	2.8510	31.0199	142.2510	42.9800	61	-244	312	100907	0.35 
20.311	-0.9785	-0.1167	2.0991	8.6060	1.7700	-41.6870	0.4669	30.2344	137.8290	42.9700	66	-236	311	100908	0.35 
20.374	-1.1670	-0.0527	1.4370	17.6392	-14.6484	-21.8506	1.0712	29.7455	133.1323	42.9700	78	-229	313	100908	0.35 
20.514	-1.1704	0.0112	1.7134	-28.9917	-20.8130	52.5513	-0.1428	29.9597	132.4841	42.9600	80	-223	318	100908	0.35 
20.577	-1.0342	-0.2148	1.7412	-16.0522	4.4556	31.8604	-0.0549	29.3445	137.6752	42.9700	71	-225	311	100908	0.35 
20.733	-0.9209	0.0420	1.8076	3.7231	12.6343	7.7515	0.2032	29.9542	139.1528	42.9700	63	-232	306	100909	0.35 
20.796	-0.8931	-0.1416	2.0332	0.5493	8.3008	43.3350	2.4994	29.9982	142.8882	42.9800	60	-238	307	100909	0.35 
20.935	-1.4819	-0.1885	1.6597	-33.6304	-37.2314	31.9824	2.4500	30.4102	145.7391	42.9600	54	-243	309	100909	0.35 
20.998	-1.3848	-0.2139	2.1104	16.9067	5.6152	4.8828	3.2135	30.7013	148.2056	42.9600	44	-244	304	100910	0.35 
21.107	-1.1167	0.1045	1.7085	21.9727	16.3574	-34.9731	4.3066	30.9375	144.8492	42.9700	47	-247	309	100910	0.35 
21.201	-1.0137	0.2183	1.8115	-6.6528	6.1035	-26.2451	3.1311	32.1295	141.1194	42.9400	61	-242	318	100909	0.35 
21.326	-1.1934	0.2827	2.0776	-4.5166	-10.6201	-26.3672	0.2197	32.3822	137.5708	42.9100	67	-232	320	100909	0.35 
21.404	-1.6387	0.3516	2.2627	21.3623	-5.1270	-7.8125	-0.4724	32.0197	135.1044	42.8900	71	-230	321	100909	0.35 
21.560	-1.2354	-0.0835	2.0908	7.0801	14.1602	-39.6118	-0.9833	32.2284	133.8794	42.8600	76	-227	318	100910	0.35 
21.716	-1.0190	-0.0820	1.8174	-18.6768	-9.6436	40.3442	-0.3516	30.4321	136.0272	42.8000	76	-225	317	100910	0.35 
21.747	-1.0825	-0.1245	1.7466	-12.0239	7.5684	28.4424	-0.1154	29.9927	139.6198	42.7600	66	-229	313	100910	0.35 
21.940	-0.9199	0.0063	1.8179	8.7891	-1.9531	4.0894	0.7910	30.2563	141.3336	42.7000	59	-234	312	100910	0.35 
21.971	-0.8926	0.0298	2.0933	9.4604	-17.1509	7.9956	2.0160	29.6301	141.8939	42.6800	59	-239	317	100910	0.35 
22.127	-1.4668	-0.1050	1.6411	-23.8647	-28.5645	13.1226	1.3239	29.3335	143.1848	42.6800	56	-240	316	100910	0.35 
22.159	-1.3740	-0.2896	2.2373	18.3716	-10.9253	-14.4043	1.2195	29.9982	143.2507	42.6800	53	-235	312	100909	0.35 
22.346	-1.0044	0.1274	1.6831	23.7427	-1.0376	-42.6636	1.5436	28.5480	138.0707	42.6900	58	-234	317	100909	0.35 
22.393	-0.9658	0.2144	1.7681	-0.6714	7.3853	-24.0479	0.8954	29.2676	134.0991	42.6900	69	-227	318	100908	0.35 
22.549	-1.0249	0.1460	1.9443	2.7466	2.3193	-43.7622	-0.7800	29.3665	131.1987	42.7100	77	-222	322	100908	0.35 
22.596	-1.5322	0.3149	2.2588	13.2446	15.8081	13.0005	-0.9503	30.5255	129.1168	42.7200	85	-216	323	100908	0.35 
22.737	-1.1362	-0.0083	1.7017	2.7466	25.6348	-17.8833	-1.3458	31.5472	128.3148	42.7100	84	-213	329	100908	0.35 
22.799	-1.0620	-0.1255	1.7617	-23.4375	-5.0659	20.5078	-1.2964	31.7889	130.6934	42.7300	86	-217	329	100908	0.35 
22.959	-1.0215	-0.0811	1.7544	-11.2915	-1.8311	1.9531	-2.4225	31.3934	131.9788	42.7200	85	-216	325	100908	0.35 
23.005	-0.9502	-0.0200	1.7593	4.2725	8.0566	-0.6714	-2.3730	31.3385	132.1216	42.7200	83	-213	323	100908	0.35 
23.162	-0.8462	-0.0400	2.0684	-6.4087	-14.7095	10.0708	-1.9940	31.0638	132.8137	42.7300	81	-214	323	100908	0.35 
23.240	-1.3135	0.0171	1.5371	5.1880	-4.0283	6.4087	-3.4717	31.1572	132.1106	42.7400	78	-215	320	100908	0.35 
23.381	-1.3174	-0.1719	1.9551	19.4092	-20.4468	-6.5918	-1.5765	32.1570	134.2969	42.7600	77	-219	326	100908	0.35 
23.552	-1.1426	0.0869	1.7729	17.2729	17.3340	-15.0146	0.7306	31.9482	133.6157	42.7600	78	-223	328	100908	0.35 
23.630	-0.8052	0.1387	1.7095	-6.5918	12.0239	-13.1226	0.6866	31.7725	131.7426	42.7600	83	-220	328	100908	0.35 
23.646	-0.9185	0.1572	2.0591	-1.2817	3.9673	-22.1558	-0.8789	32.0087	129.7595	42.7700	80	-217	329	100908	0.35 
23.787	-1.3574	0.2119	1.6162	19.8364	-26.1841	33.1421	-0.2637	32.2339	129.0179	42.7700	89	-213	328	100908	0.35 
23.855	-1.3413	0.2480	1.9844	-11.8408	-25.7568	8.1787	-0.5493	31.9427	128.8367	42.7600	84	-214	329	100909	0.35 
23.993	-1.1157	-0.0259	1.7554	-18.0054	-10.9863	35.1563	-0.8240	30.3003	131.9073	42.7500	79	-214	325	100909	0.35 
24.165	-0.9731	-0.0962	1.7905	0.6104	-0.3662	5.0049	-0.8295	29.8224	133.9948	42.7600	71	-216	318	100909	0.35 
24.228	-0.9863	-0.0698	2.0376	1.8921	11.9019	9.5825	0.0385	29.7510	134.7748	42.7800	70	-220	313	100909	0.35 
24.384	-1.5088	-0.0859	2.0630	-11.3525	-6.5308	31.7993	0.2582	30.1080	136.1810	42.7700	64	-222	315	100908	0.35 
24.431	-1.2588	-0.0381	2.1113	2.9297	18.6768	27.0996	0.8185	30.5255	138.9990	42.7900	59	-225	317	100908	0.35 
24.603	-1.0508	0.1206	1.7363	29.8462	2.0752	-20.3857	2.5818	30.2563	138.2520	42.7900	59	-227	313	100908	0.35 
24.649	-1.0640	0.2646	1.8931	6.8359	9.2773	-19.2871	3.2684	31.5802	135.9064	42.7900	63	-225	318	100908	0.35 
24.806	-1.0615	0.0610	2.0024	-3.6011	-2.0752	-10.4980	3.1091	31.8713	135.7745	42.7900	67	-227	321	100908	0.35 
24.846	-1.7612	0.2451	2.3330	13.8550	5.4321	16.5405	2.9883	32.4097	134.9121	42.8100	67	-223	323	100909	0.35 
24.984	-1.2100	0.1978	2.0850	-3.3569	27.2217	-53.5278	2.0490	31.9592	133.8135	42.8100	68	-227	325	100908	0.35 
25.062	-1.0762	0.0137	1.7070	-15.3198	-4.9438	-5.0049	-0.2527	31.1902	132.6105	42.7900	74	-220	321	100908	0.35 
25.234	-0.9575	-0.1177	1.7354	-3.9063	-3.2959	-6.0425	-1.2469	30.5804	132.9291	42.8100	71	-215	316	100908	0.35 
25.343	-1.1196	0.1499	2.0132	-4.9438	13.2446	26.1841	-0.5933	30.9760	133.8080	42.8100	69	-210	315	100908	0.35 
25.406	-1.2495	-0.2632	2.0176	-18.8599	-5.4321	2.2583	-1.5656	31.4868	135.7416	42.7900	67	-211	317	100908	0.35 
25.452	-1.2969	0.0508	2.0054	5.7373	7.0190	17.5781	-2.2137	32.8491	134.7583	42.7900	73	-212	316	100908	0.35 
25.656	-1.1738	0.1201	1.6797	24.5972	-5.4321	-18.2495	-0.7635	32.0032	133.5663	42.7900	71	-210	321	100908	0.35 
25.812	-1.0244	0.1558	1.7358	3.0518	4.8828	-4.2114	-0.0769	32.0142	132.3688	42.7900	74	-208	317	100908	0.35 
25.812	-1.0737	-0.0645	2.0493	0.4883	-10.8643	-20.3857	-0.7581	32.4536	131.6162	42.8000	77	-209	323	100908	0.35 
25.998	-1.6753	0.1821	2.2983	10.3149	29.4800	-23.5596	-2.4280	32.1460	127.6447	42.8100	79	-201	322	100908	0.35 
26.029	-1.1108	0.1260	1.8828	-14.2822	16.1133	-2.1362	-0.5548	32.5470	129.3970	42.8000	82	-202	323	100907	0.35 
26.216	-1.0215	0.0195	1.6309	-19.1650	-6.4697	26.6724	-1.4008	32.0087	131.8140	42.8000	82	-202	324	100907	0.35 
26.248	-0.9897	-0.1855	1.7261	2.2583	-14.3433	20.3247	-0.4010	31.1243	135.2307	42.8100	77	-209	318	100907	0.35 
26.404	-1.0566	0.0850	1.9922	6.7139	3.1738	20.8130	1.0547	30.2673	136.6754	42.8100	71	-214	314	100908	0.35 
26.456	-1.5542	-0.0610	2.4551	-22.6440	18.6768	-12.9395	0.4724	31.2122	137.0709	42.8200	72	-215	315	100908	0.35 
26.596	-1.1455	0.0581	1.8022	-1.8921	28.4424	25.8789	0.1648	30.8716	137.4335	42.8000	72	-211	311	100908	0.35 
26.659	-1.0352	0.0591	1.6489	19.6533	2.1362	-27.4658	0.5933	31.1243	136.1755	42.8100	69	-212	310	100908	0.35 
26.831	-1.0518	0.1284	1.7686	2.4414	3.2349	-27.8320	-0.1373	31.8988	132.6270	42.8100	77	-211	314	100908	0.35 
26.888	-0.9844	0.0029	1.9365	-5.3101	-7.3853	-29.9683	-1.8018	31.4978	130.1111	42.8300	83	-206	317	100908	0.35 
26.998	-1.1929	-0.1714	2.2949	11.1084	6.6528	-28.5645	-3.2245	31.3770	126.7438	42.8200	89	-195	316	100907	0.35 
27.061	-1.2080	-0.3408	1.9009	3.6621	17.2119	-31.7993	-2.0874	32.4976	126.1066	42.8100	94	-195	317	100908	0.35 
27.264	-1.0596	-0.0845	1.6665	-20.0195	-18.1274	51.3916	-2.2742	31.9537	127.4304	42.8200	98	-192	318	100908	0.35 
27.373	-1.1221	-0.2456	1.6953	-10.0708	-0.6714	35.7666	-1.2964	31.2506	132.6984	42.8100	91	-197	310	100908	0.35 
27.436	-0.9058	0.0366	1.7886	18.4937	-7.5073	0.6714	-0.1263	30.6793	133.6432	42.8100	83	-205	308	100907	0.35 
27.483	-0.9165	0.0288	2.0444	2.8687	4.6387	22.6440	1.5820	30.8551	135.5383	42.8200	83	-207	307	100908	0.35 
27.701	-1.4087	0.0630	1.5503	-6.3477	-11.4136	-6.4087	0.4120	31.5088	135.4340	42.8200	85	-211	314	100908	0.35 
27.795	-1.2026	-0.1636	1.7939	21.3623	-22.8882	-16.4185	2.0050	31.5857	136.8182	42.7900	81	-212	312	100908	0.35 
27.836	-1.0640	0.1094	1.6860	13.6719	1.6479	-18.1274	3.0322	30.9375	134.6100	42.8100	80	-215	311	100908	0.35 
27.915	-0.9541	0.1133	1.7261	-0.1221	11.2305	-15.5640	2.6038	31.7120	132.8522	42.8000	88	-211	311	100908	0.35 
28.086	-1.0171	0.3403	2.1323	8.4839	3.7842	-19.5923	0.3680	32.2504	129.0399	42.8200	97	-204	317	100908	0.35 
28.118	-1.5542	0.1919	1.8262	15.5029	-6.8970	-1.3428	1.3898	32.9150	128.7982	42.8100	95	-202	318	100908	0.35 
28.275	-1.3491	0.3633	1.9063	-16.6626	-1.8921	-0.0610	0.9998	32.9041	127.9413	42.8200	102	-201	321	100908	0.35 
28.447	-1.1548	-0.0303	1.7134	-19.7144	3.1738	12.9395	-0.4065	32.5305	129.3915	42.8100	102	-202	317	100908	0.35 
28.479	-0.9717	-0.0684	1.8027	1.0986	-4.6387	1.4038	-0.9229	32.2888	130.1550	42.8100	96	-197	315	100909	0.35 
28.650	-1.0444	-0.0898	1.9897	-0.5493	12.5122	21.3623	0.2252	31.8109	131.2427	42.8300	95	-199	314	100909	0.35 
28.760	-1.5054	-0.1504	1.9160	-15.6860	-22.0337	-10.9863	-1.1865	32.2174	130.9680	42.8200	99	-202	316	100909	0.35 
28.867	-1.2856	-0.2402	2.0728	6.1646	4.3335	22.3999	-0.0220	32.4207	133.5883	42.8200	100	-205	315	100909	0.35 
28.920	-1.1299	0.0908	1.7622	20.5688	5.0659	-24.4751	1.3513	31.8549	131.7371	42.8300	97	-206	316	100909	0.35 
29.076	-1.0273	0.1177	1.7646	0.4272	0.1221	-8.8501	1.2909	32.1021	129.7156	42.8100	103	-207	323	100909	0.35 
29.201	-1.1450	0.1743	1.9814	6.7749	-0.3052	-55.0537	-0.3186	32.0581	126.5955	42.8300	108	-202	322	100909	0.35 
29.263	-1.6758	0.3184	2.0654	14.3433	3.6621	28.9307	0.2637	32.0306	124.3762	42.8200	115	-192	321	100909	0.35 
29.310	-1.3579	0.3374	1.9868	-14.1602	-4.5776	4.0283	-0.2252	31.9922	125.2002	42.8300	114	-195	321	100909	0.35 
29.513	-1.1001	-0.0391	1.8008	-10.0098	-3.1128	26.3062	0.5328	30.9320	129.1333	42.8200	111	-199	318	100909	0.35 
29.667	-0.9341	-0.0454	1.7661	-0.1221	2.0142	5.0049	0.6152	30.3662	130.8252	42.8200	106	-205	315	100909	0.35 
29.745	-1.0063	0.0884	1.9468	1.1597	-4.0894	36.2549	1.6919	30.5035	132.6929	42.8400	104	-207	313	100910	0.35 
29.860	-1.6064	-0.1260	1.8418	-15.0757	-28.3203	-41.3818	-0.7581	31.1298	132.4512	42.8400	101	-215	313	100909	0.35 
29.893	-1.3726	-0.1914	2.0708	17.3950	8.3618	13.8550	0.5328	32.0361	133.6707	42.8300	105	-209	314	100909	0.35 
29.937	-1.1255	0.1230	1.8320	16.1133	6.5308	-6.8359	2.2577	31.7450	132.4512	42.8300	104	-212	320	100910	0.35 
30.109	-0.9580	0.1128	1.6929	-0.2441	3.4790	-14.7095	2.1204	31.8494	131.0394	42.8400	110	-214	321	100909	0.35 
30.281	-1.1689	0.2563	2.0063	-10.6201	4.4556	-44.0674	-0.8130	32.9041	127.0569	42.8400	115	-208	328	100909	0.35 
30.328	-1.8457	0.2207	2.2935	25.8179	3.3569	17.1509	-0.7416	33.5138	125.6232	42.8400	126	-200	328	100909	0.35 
30.422	-1.3413	0.3779	1.9473	-8.5449	4.1504	-17.1509	-0.1044	33.1842	125.7935	42.8400	122	-207	329	100910	0.35 
30.531	-1.1631	0.0376	1.8096	-19.1040	-1.4038	42.0532	0.0165	32.3273	129.3146	42.8400	120	-210	325	100909	0.35 
30.672	-1.0112	-0.1035	1.7681	0.7935	-1.7700	3.1128	0.6207	31.4594	132.5500	42.8500	111	-220	319	100909	0.35 
30.750	-1.0449	0.1289	1.9697	2.0142	-1.0376	25.9399	1.4722	31.0199	133.3795	42.8600	105	-224	319	100910	0.35 
30.873	-1.6680	-0.2686	2.2837	-24.8413	2.7466	-20.7520	0.8020	32.2064	134.4946	42.8600	101	-229	320	100910	0.35 
31.045	-1.2080	-0.1006	1.9800	-2.1362	22.1558	39.4287	0.9503	32.2229	136.0931	42.8400	96	-230	318	100910	0.35 
31.076	-1.0088	0.0796	1.6650	26.4893	-9.6436	-21.1182	2.2577	31.1957	135.3021	42.8500	91	-238	317	100910	0.35 
31.138	-0.9976	0.1392	1.7397	3.1738	-5.0049	-24.3530	2.2577	30.9045	132.4951	42.8500	95	-234	318	100910	0.35 
31.326	-1.2153	0.1138	2.0356	-3.6621	12.4512	-52.1851	-0.2747	31.7999	128.5950	42.8400	97	-236	318	100910	0.35 
31.357	-1.7632	0.2295	2.3486	8.9722	16.4185	-14.5264	-1.4063	32.3218	125.1837	42.8500	105	-224	322	100910	0.35 
31.545	-1.2114	0.0981	1.9990	-2.8687	-4.4556	-22.3389	-0.4504	31.9592	125.7001	42.8400	102	-224	321	100909	0.35 
31.685	-1.0645	-0.0186	1.7266	-19.1650	-9.8267	54.4434	0.1593	30.3772	129.5178	42.8400	96	-223	320	100909	0.35 
31.763	-1.0127	-0.1592	1.8359	-5.1880	-7.2021	29.7241	1.1316	29.5917	134.7968	42.8400	77	-235	310	100909	0.35 
31.859	-0.9751	0.0850	1.8979	2.5024	-7.3242	30.7617	2.5049	27.9218	137.4939	42.8400	61	-241	301	100908	0.35 
31.937	-1.4819	-0.3081	2.3633	-21.3623	5.6763	-29.4189	2.1643	28.6798	139.3011	42.8500	55	-245	306	100909	0.35 
32.094	-1.1367	-0.0151	1.9614	-12.7563	40.3442	73.4253	2.2028	28.7732	141.4160	42.8600	49	-240	300	100909	0.35 
32.140	-1.0444	0.1880	1.6250	32.3486	0.4272	-31.4941	3.1146	29.0259	140.4822	42.8600	42	-244	299	100909	0.35 
32.292	-1.0537	0.0688	1.7217	6.9580	14.1602	-31.6162	3.6914	30.8167	137.8729	42.8700	50	-239	305	100909	0.35 
32.307	-0.9326	0.0415	1.9893	-8.8501	15.3198	-36.0107	1.5436	32.1680	134.5990	42.8500	56	-233	311	100909	0.35 
32.495	-1.0015	-0.2441	2.1738	3.7231	13.9160	-7.3853	0.6262	32.1954	132.9895	42.8700	62	-224	312	100908	0.35 
32.542	-1.0679	-0.3369	1.6948	6.0425	-10.4370	-19.7754	1.1920	32.6349	131.9733	42.8600	64	-220	317	100908	0.35 
32.714	-1.0869	-0.0635	1.6777	-17.7612	-25.1465	12.5732	-0.6427	31.7230	130.1111	42.8500	63	-216	315	100908	0.35 
32.792	-1.0405	-0.1113	1.6992	-14.1602	-4.9438	19.6533	-1.5710	30.6628	131.8085	42.8700	61	-213	305	100908	0.35 
32.914	-0.8457	0.0317	1.8579	5.6152	-3.4790	12.1460	-1.2854	30.0476	133.1708	42.8600	58	-208	304	100908	0.35 
32.954	-0.9004	-0.0210	2.0679	-8.7280	-0.9766	7.3853	-0.0769	30.2014	135.5383	42.8700	56	-216	308	100908	0.35 
33.157	-1.2017	0.0752	1.5474	-14.2212	-26.5503	18.6768	-1.4557	29.8279	136.5381	42.8700	57	-213	302	100908	0.35 
33.219	-1.0854	-0.0273	1.6924	38.3911	-18.0664	-10.8032	0.7910	29.9158	138.4222	42.8600	52	-214	302	100908	0.35 
33.376	-1.0835	0.1699	1.7002	16.4795	10.8643	-20.8130	2.6312	30.6134	136.4172	42.8500	55	-218	304	100908	0.35 
33.485	-0.8955	0.0698	1.6323	-3.9673	16.5405	-18.0054	2.3071	31.4978	134.9396	42.8400	60	-215	309	100908	0.35 
33.516	-0.9688	0.1958	2.2793	1.8311	0.3052	-23.8037	-0.4395	33.4094	131.4294	42.8600	71	-209	315	100908	0.35 
33.594	-1.7202	0.3379	1.9487	16.9678	11.1694	23.8647	0.2362	34.6674	130.0287	42.8700	81	-201	320	100908	0.35 
33.766	-1.3799	0.3530	2.1006	-5.0659	-2.0752	-15.0146	-0.7800	33.8269	129.4025	42.8600	78	-202	321	100908	0.35 
33.890	-1.1245	-0.0327	1.7876	-13.4888	-8.6060	39.0015	0.1099	31.7615	133.2806	42.8400	74	-202	315	100908	0.35 
33.936	-0.9951	-0.1450	1.7388	-3.0518	-10.0708	26.9165	1.0712	30.7892	136.8896	42.8400	66	-207	309	100908	0.35 
34.140	-1.1011	-0.1284	1.9209	4.3945	19.6533	22.2168	3.1586	30.1575	139.9438	42.8200	61	-215	302	100909	0.35 
34.218	-1.5493	-0.0854	2.2617	-21.9727	-5.0659	19.4702	2.8235	30.6628	140.8997	42.8400	64	-220	310	100909	0.35 
34.327	-1.3188	-0.0327	2.1357	2.1973	11.9019	28.5034	2.8674	30.4156	143.1299	42.8500	53	-223	301	100908	0.35 
34.343	-1.0586	0.0762	1.6514	26.3062	9.7046	-38.1470	3.6749	30.0366	140.6689	42.8300	52	-225	302	100909	0.35 
34.515	-1.0952	0.1602	1.8076	5.7983	13.7939	-39.9780	2.7960	31.8549	136.0272	42.8300	61	-223	307	100908	0.35 
34.733	-1.1274	-0.0239	2.0269	5.3711	11.5356	-57.5562	0.2692	33.0798	131.2976	42.8400	77	-212	315	100908	0.35 
34.796	-1.4053	0.1812	2.2808	19.6533	17.3340	-18.9209	-0.6152	32.3712	127.0129	42.8700	82	-203	316	100908	0.35 
34.796	-1.1436	-0.1924	1.8428	-4.7607	-0.1831	-33.6914	-0.0165	32.6184	126.5240	42.8400	86	-200	317	100908	0.35 
34.921	-1.1182	0.0435	1.7056	-21.9116	-6.5308	20.5688	-1.1041	31.6461	126.8756	42.8300	85	-197	314	100908	0.35 
34.984	-1.0215	-0.1475	1.7173	-15.9302	-1.9531	19.6533	-1.3403	31.3055	130.2155	42.8200	78	-198	306	100908	0.35 
35.140	-1.0347	0.1128	2.0410	-0.6104	4.3335	25.3296	-0.9064	31.5747	132.3633	42.8300	75	-201	309	100908	0.35 
35.203	-1.3560	-0.0303	2.4087	-22.1558	15.7471	-6.5918	-0.3021	31.4923	135.2692	42.8200	72	-207	306	100908	0.35 
35.359	-1.1870	0.0732	1.7192	-0.1221	5.6763	33.4473	-1.1316	31.3000	136.0712	42.8400	66	-207	309	100908	0.35 
35.531	-1.0449	0.0728	1.6040	27.5269	-7.9956	-7.7515	1.2305	30.9869	137.1808	42.8300	67	-208	306	100908	0.35 
35.562	-1.0825	0.1313	1.7749	11.1694	-0.1221	-20.7520	2.2137	31.6571	135.4834	42.8400	67	-212	311	100909	0.35 
35.593	-0.9731	-0.0620	2.0034	-6.8359	14.3433	-45.0439	0.7471	32.1130	132.4786	42.8200	73	-209	312	100909	0.35 
35.796	-1.3716	0.1782	2.4341	17.3950	31.4331	-13.3667	-1.0327	32.7008	128.4082	42.8300	78	-198	317	100909	0.35 
35.830	-1.0259	-0.4380	1.5010	-0.4272	3.9673	-21.8506	1.2030	32.6074	130.2649	42.8400	82	-199	322	100909	0.35 
35.998	-1.0635	0.0083	1.5864	-25.7568	-20.5078	27.0386	0.1373	31.6351	129.6332	42.8300	83	-201	316	100909	0.35 
36.036	-1.0283	-0.1997	1.7251	-20.8130	-6.1646	29.3579	-0.2802	31.0144	133.3136	42.8400	77	-202	311	100909	0.35 
36.201	-0.8472	0.0850	1.7007	3.7842	9.3994	12.1460	-0.1868	30.7343	134.5880	42.8100	70	-201	310	100909	0.35 
36.357	-0.9541	0.1089	2.1431	-2.8076	20.5078	33.9355	1.8512	32.3053	137.6862	42.8400	67	-210	314	100909	0.35 
36.388	-1.1831	0.0845	1.3809	-4.8218	-31.4331	7.6294	-0.7965	31.8713	137.4664	42.8400	69	-208	310	100909	0.35 
36.623	-1.2686	-0.1489	1.8325	21.1182	-31.8604	-14.5264	1.5106	32.4207	139.9219	42.8400	67	-212	307	100909	0.35 
36.623	-1.1245	0.1138	1.7231	10.8032	2.6245	-19.8975	2.3566	31.9318	137.2797	42.8400	70	-218	316	100909	0.35 
36.763	-0.9380	-0.0371	1.8081	-7.5073	10.4980	-10.0098	1.8018	32.4207	135.9448	42.8400	73	-213	314	100908	0.35 
36.870	-1.0698	0.1543	2.2295	-2.0142	3.1128	-14.0381	-0.4065	33.1403	133.2037	42.8500	80	-208	317	100908	0.35 
37.020	-1.3252	-0.0850	1.6470	18.5547	-12.3901	-18.3716	-1.0327	32.4261	130.5121	42.8400	81	-203	318	100908	0.35 
37.052	-1.2202	0.2852	1.8052	-6.5918	-23.4985	-3.3569	-1.3074	31.6406	127.3315	42.8400	83	-202	320	100908	0.35 
37.192	-1.0571	-0.0381	1.6758	-15.9912	-5.7373	22.0337	-1.7523	30.6354	129.3750	42.8400	80	-198	313	100908	0.35 
37.255	-0.9053	-0.1108	1.7671	4.4556	0.6714	5.3101	-1.4337	30.2069	131.0614	42.8500	73	-202	307	100908	0.35 
37.348	-1.1104	-0.2471	2.0576	0.4883	11.6577	5.0049	-0.5823	30.7617	131.7810	42.8500	72	-208	310	100909	0.35 
37.458	-1.4424	-0.1807	2.0991	-15.6250	-8.3618	-2.4414	-1.7303	31.0034	131.5448	42.8400	76	-208	314	100908	0.35 
37.614	-1.2725	-0.0195	2.1226	5.5542	10.2539	27.4658	-1.0162	31.5637	133.1488	42.8400	75	-206	310	100908	0.35 
37.661	-1.0439	0.1196	1.6982	14.4043	5.0659	7.6294	1.1920	30.7233	134.2584	42.8200	71	-213	310	100908	0.35 
37.802	-1.0815	0.0508	1.8281	-1.2207	22.3999	3.9673	2.3676	31.8494	135.3680	42.8500	69	-217	312	100908	0.35 
37.879	-0.9561	-0.0005	1.8809	-5.8594	-2.6245	-21.9727	1.2744	32.5854	134.4287	42.8300	74	-217	317	100908	0.35 
38.005	-1.2397	-0.0752	2.3862	13.3057	15.3809	-28.1372	0.1868	33.4644	131.5668	42.8400	75	-215	319	100908	0.35 
38.067	-1.2324	-0.1572	1.5415	-6.7749	6.7139	-9.2773	0.9778	33.3655	130.3363	42.8400	79	-214	325	100908	0.35 
38.255	-1.1284	-0.0479	1.6475	-14.4043	-19.1040	21.2402	-0.1154	32.9700	130.6714	42.8300	79	-211	328	100908	0.35 
38.411	-1.1187	-0.0864	1.7134	-7.8125	-8.5449	23.6816	0.0110	32.5854	133.0829	42.8000	75	-213	320	100908	0.35 
38.505	-0.9595	0.0190	1.7466	12.4512	-7.5073	26.4282	1.5216	32.0691	135.5054	42.8100	69	-219	319	100908	0.35 
38.646	-1.0981	-0.1416	1.9385	8.4839	-4.5166	3.4180	4.5154	31.7230	138.2849	42.8000	62	-233	319	100908	0.35 
38.708	-1.8345	-0.4561	2.1567	-45.8984	7.3242	7.7515	4.7571	31.0693	141.2512	42.8100	57	-231	322	100909	0.35 
38.817	-1.2524	0.0088	1.7627	33.0200	-12.0239	31.4331	3.8562	31.6132	141.2238	42.8000	53	-233	316	100908	0.35 
38.895	-1.2993	0.1011	1.7729	15.8081	0.9155	-14.1602	5.4053	32.3657	140.4163	42.8200	53	-239	319	100908	0.35 
39.005	-1.2617	0.1465	1.8208	4.3945	-1.8311	-23.4985	4.5593	32.2833	137.8949	42.8200	55	-234	325	100908	0.35 
39.052	-1.1943	0.0811	1.8311	-5.7373	-19.6533	-28.3203	2.8729	31.3165	135.1593	42.8200	57	-229	326	100908	0.35 
39.208	-1.2754	-0.0063	1.8643	-11.5967	-12.8784	13.6719	1.2360	29.9377	133.9783	42.8300	60	-225	318	100908	0.35 
39.286	-1.2168	-0.0376	1.8433	1.2207	5.1880	0.3052	1.1096	30.0311	134.7363	42.8400	56	-225	316	100907	0.35 
39.442	-1.1343	0.0103	1.9775	-0.5493	-7.5684	-9.2773	0.7196	30.0751	134.1376	42.8300	57	-226	315	100907	0.35 
39.630	-1.1064	-0.0010	1.8643	-1.8921	6.2866	-6.8359	0.0494	29.6521	133.4015	42.8400	58	-221	315	100907	0.35 
39.708	-1.0801	-0.0430	1.8838	0.8545	2.1362	2.4414	-0.0824	29.8718	133.5992	42.8600	58	-220	314	100908	0.35 
39.708	-1.0625	-0.0420	1.8701	-0.4272	-2.9907	-7.8125	-0.3021	29.8279	133.2916	42.8600	58	-219	316	100907	0.35 
39.896	-1.1016	0.0171	1.8652	0.9766	-4.3945	-6.7749	-0.5933	29.6082	132.6544	42.8600	60	-216	315	100907	0.35 
40.027	-1.0874	0.0513	1.8770	3.6011	1.2817	-6.9580	-0.7910	29.5313	131.8140	42.8700	60	-218	315	100907	0.35 
40.058	-1.1182	0.0962	1.9004	3.9063	1.2817	9.8267	-0.1483	29.6796	132.2809	42.8600	63	-218	314	100908	0.35 
40.105	-1.0981	0.0220	1.9014	1.4038	0.8545	7.6294	0.7745	29.7510	133.7256	42.8700	60	-218	317	100908	0.35 
40.245	-1.1533	-0.0068	1.8936	0.0000	-0.9766	-10.0098	0.7965	29.7784	133.9618	42.8700	64	-220	315	100908	0.35 
40.308	-1.0752	0.0039	1.8574	4.3945	-2.3193	-26.9165	0.0549	29.7400	132.0282	42.8700	65	-219	316	100908	0.35 
40.464	-1.0957	0.0723	1.8916	1.3428	1.8311	-23.6816	-1.0217	29.8938	129.2542	42.8700	71	-214	318	100908	0.35 
40.527	-1.0879	0.1035	1.8735	-0.7935	-6.1646	-2.5635	-1.3788	29.6631	128.4357	42.8700	70	-207	316	100908	0.35 
40.667	-1.0332	0.0132	1.8687	-2.8687	-2.7466	5.6152	-1.1371	29.2181	129.3970	42.8700	68	-208	315	100908	0.35 
40.844	-1.0820	0.0327	1.8906	-0.7935	-2.6855	8.1177	-0.8295	29.0918	130.5450	42.8800	67	-208	313	100909	0.35 
40.880	-1.0415	0.0728	1.8877	1.0986	-7.6294	22.1558	0.2747	28.4821	132.6489	42.8700	63	-214	316	100909	0.35 
41.014	-1.0488	0.0068	1.8853	-1.7090	1.5869	13.3057	1.1700	28.4766	135.0714	42.8700	62	-213	314	100909	0.35 
41.061	-1.0615	0.0508	1.9019	-2.2583	-1.2207	2.0142	1.3348	28.5425	135.9613	42.8700	59	-218	311	100909	0.35 
41.249	-1.0620	0.0439	1.8828	-1.2817	-0.3662	6.9580	1.4117	28.5370	136.6095	42.8700	57	-219	315	100909	0.35 
41.296	-1.0420	0.0313	1.8774	-1.7090	3.1128	10.4980	1.7303	28.5809	137.7356	42.8700	56	-222	311	100909	0.35 
41.452	-1.0625	-0.0068	1.8755	-0.3052	4.0894	5.3101	1.9940	28.9600	138.7793	42.8900	52	-226	311	100909	0.35 
41.499	-1.0610	0.0381	1.8555	-0.4883	2.8076	2.1362	2.0105	29.3115	139.0320	42.8900	52	-224	313	100909	0.35 
41.639	-1.0469	0.0088	1.8589	-1.5259	6.4697	8.1787	2.1423	29.5642	139.6252	42.8800	56	-225	314	100908	0.35 
41.702	-1.0752	0.0615	1.8652	1.2207	0.7935	7.5684	2.5488	29.8389	140.4218	42.8700	55	-226	312	100908	0.35 
41.852	-1.0654	0.0342	1.8643	-0.7324	-0.4272	10.9863	3.0597	29.7675	141.5039	42.8900	52	-227	313	100908	0.35 
41.899	-1.0869	0.0347	1.8857	0.1831	1.0376	7.8125	3.4332	29.7235	142.3718	42.8800	48	-230	315	100908	0.35 
42.040	-1.0933	0.0161	1.8950	0.0610	1.5869	7.9956	3.7628	29.7565	143.1848	42.8800	47	-230	310	100908	0.35 
42.102	-1.0811	0.0430	1.8589	-0.4272	2.1362	9.0332	4.0375	29.8279	143.9099	42.8700	46	-232	314	100908	0.35 
42.243	-1.0957	0.0439	1.8843	-1.4648	3.6621	14.1602	4.4495	30.1300	145.1019	42.9000	46	-234	317	100908	0.35 
42.321	-1.0986	0.0308	1.8896	0.4272	4.4556	9.1553	4.8669	30.3607	146.1951	42.9000	41	-238	313	100908	0.35 
42.493	-1.0981	0.0459	1.8960	0.3662	0.1221	6.8359	5.1251	30.5640	146.8488	42.8900	39	-239	314	100908	0.35 
42.571	-1.1016	0.0322	1.8877	-1.3428	2.0752	8.3618	5.2789	30.5859	147.4860	42.8900	42	-240	313	100909	0.35 
42.681	-1.0962	0.0161	1.8804	-1.1597	-0.3052	2.7466	5.1251	30.6519	147.6892	42.9000	37	-244	312	100909	0.35 
42.759	-1.1001	0.0220	1.8833	0.0000	0.4272	-1.6479	4.8340	30.6464	147.3816	42.9000	40	-244	313	100909	0.35 
42.880	-1.0923	0.0151	1.8901	0.9766	-0.4883	-6.5308	4.4330	30.5914	146.6785	42.9000	39	-245	312	100908	0.35 
42.952	-1.0933	0.0454	1.8853	0.0000	-1.6479	-5.1880	3.9496	30.4596	145.7281	42.9100	39	-242	316	100908	0.35 
43.124	-1.0840	0.0430	1.8774	0.1831	-1.5869	-4.1504	3.5541	30.3113	145.0690	42.9100	40	-238	314	100908	0.35 
43.295	-1.0942	0.0405	1.8950	0.9155	-2.0142	-5.4321	3.2135	30.1685	144.3713	42.9200	41	-238	314	100908	0.35 
43.358	-1.0889	0.0332	1.8726	0.9766	0.9766	-7.0801	2.8564	30.0806	143.5583	42.9100	38	-241	316	100908	0.35 
43.467	-1.0981	0.0581	1.8916	0.2441	0.9155	-7.0190	2.4280	30.2399	142.6410	42.9300	46	-239	315	100908	0.35 
43.514	-1.0884	0.0469	1.8867	0.4883	-1.0376	-0.6714	2.2852	30.2014	142.3663	42.9400	46	-238	315	100907	0.35 
43.670	-1.0850	0.0464	1.8809	0.4272	-0.9766	-1.0376	2.2137	30.1135	142.2510	42.9400	46	-239	315	100907	0.35 
43.733	-1.0781	0.0439	1.8774	0.0610	0.4272	1.1597	2.1918	30.0201	142.2015	42.9400	48	-235	313	100908	0.35 
43.897	-1.0913	0.0317	1.8955	-0.3662	1.3428	1.8921	2.2522	30.0970	142.4158	42.9500	47	-238	314	100908	0.35 
43.944	-1.0742	0.0361	1.8872	-0.3662	-1.6479	-4.8218	2.0709	29.9817	142.1906	42.9500	47	-239	314	100908	0.35 
44.069