15+15 steps
StartTime: 2017-07-06 16:05:20.203
Time(s)	ax(g)	ay(g)	az(g)	wx(deg/s)	wy(deg/s)	wz(deg/s)	AngleX(deg)	AngleY(deg)	AngleZ(deg)	T(°)	hx	hy	hz 
2.203	-0.3491	0.1108	0.9121	2.1362	-1.1597	-5.2490	6.7401	21.6431	-152.8143	37.5600	-166	-236	102 
2.235	-0.3940	0.0825	0.9253	2.2583	5.9814	-21.4844	6.5039	22.0166	-154.1052	37.5800	-162	-237	105 
2.438	-0.3130	0.2603	0.9341	-10.1929	-1.2817	-4.0894	5.6909	22.3846	-155.9070	37.5900	-156	-240	103 
2.469	-0.2681	0.1211	0.9136	-21.2402	5.4321	25.4517	4.9548	22.0990	-154.0887	37.6200	-159	-233	99 
2.594	-0.2344	0.1660	0.9092	-25.8789	10.1929	35.9497	4.0759	22.2198	-150.9302	37.6200	-161	-229	96 
2.657	-0.2251	0.0991	0.9424	-35.7056	16.9678	45.3491	2.9718	22.9779	-146.4532	37.6200	-162	-221	90 
2.703	-0.2324	-0.0103	0.9531	-31.3110	3.9063	50.0488	1.5875	23.5492	-141.3062	37.6600	-165	-205	81 
2.891	-0.3486	-0.0586	1.1274	-37.3535	8.3008	39.5508	0.0824	23.5876	-136.6919	37.6600	-168	-188	81 
3.000	-0.4927	-0.2451	1.3809	-20.4468	-15.0757	-0.9155	-2.3456	22.6923	-134.6210	37.6700	-171	-175	80 
3.032	-0.3813	0.2100	0.4360	23.6206	-9.6436	20.1416	-2.1478	21.4069	-135.7526	37.6800	-175	-171	83 
3.110	-0.3525	-0.1494	1.0771	1.5259	-9.6436	-32.4097	-0.1703	21.5717	-135.7031	37.6800	-179	-175	83 
3.266	-0.2529	-0.1377	0.6675	34.1797	-26.3672	-22.0947	0.8295	19.8798	-138.3508	37.6800	-182	-179	88 
3.454	-0.2124	0.1313	0.9307	32.0435	-2.1973	-62.1948	1.8622	19.5172	-143.7122	37.6800	-182	-193	90 
3.485	-0.2090	0.0229	0.9697	25.2686	-19.5923	-32.4707	3.5925	18.3911	-148.0902	37.7000	-176	-205	94 
3.516	-0.4771	0.2041	1.3687	15.7471	-17.9443	-42.7856	3.7573	17.4243	-153.0066	37.7100	-174	-218	103 
3.657	-0.5288	-0.1646	0.4458	27.2217	-6.6528	18.3716	6.5808	17.1661	-152.8418	37.7200	-174	-227	109 
3.719	-0.3984	0.3765	0.7646	-11.4136	7.1411	-26.6113	4.7791	18.7646	-155.3302	37.7400	-172	-237	109 
3.860	-0.2148	-0.2739	0.8081	-25.3906	-12.4512	42.1753	3.8068	18.8031	-153.2428	37.7300	-169	-235	104 
3.907	-0.1616	0.0049	0.8975	-1.9531	10.0098	-10.1929	1.6919	19.0942	-152.3309	37.7600	-171	-230	98 
4.063	-0.2979	-0.1030	1.1230	-2.7466	-3.9673	24.9634	2.1149	19.0118	-150.7159	37.7700	-168	-223	103 
4.126	-0.6641	-0.0791	0.8193	-14.5874	-15.6250	-49.6216	0.5493	18.5944	-151.8915	37.7800	-168	-221	102 
4.282	-0.0669	0.0991	0.9268	6.0425	-28.9307	-23.9258	-0.5328	17.0782	-155.9454	37.7700	-169	-227	99 
4.329	-0.3394	-0.2622	0.7598	33.5693	-7.6904	-63.1714	-0.3680	17.0728	-157.8131	37.8100	-168	-234	103 
4.454	-0.1870	0.3213	1.0088	13.6108	6.8359	-41.0156	1.4502	17.8198	-163.8171	37.7800	-158	-247	107 
4.516	-0.2271	-0.1113	0.9883	12.3901	3.2349	-30.0903	2.1313	17.3914	-165.8551	37.8100	-152	-256	113 
4.641	-1.0049	0.1270	1.3345	10.6812	-9.7656	5.1270	2.6257	17.3804	-168.2336	37.8400	-148	-265	112 
4.735	-0.3960	-0.4360	1.0303	7.4463	-4.5776	8.6060	6.1798	16.9135	-164.0094	37.8400	-153	-266	120 
4.860	-0.4033	0.3755	0.7275	-29.7241	-7.5073	31.1890	5.2295	17.6660	-164.0369	37.8500	-153	-271	121 
4.923	-0.0625	-0.2349	0.6406	-3.5400	-9.4604	-1.0986	2.2192	14.1614	-160.7574	37.8600	-162	-261	120 
5.063	-0.3198	0.2642	1.1504	-2.7466	56.6406	14.7705	2.5708	16.6553	-159.5270	37.8800	-163	-260	121 
5.126	-0.1621	-0.5249	1.1934	-4.2725	-13.1836	20.2637	2.9169	16.5125	-155.9290	37.8900	-162	-258	117 
5.282	-0.6172	0.1401	0.7305	-17.1509	-10.2539	-38.9404	0.1758	17.7100	-160.3400	37.9000	-161	-257	116 
5.329	-0.2842	-0.2344	0.9614	1.8311	7.1411	-25.9399	0.1978	16.9904	-162.5153	37.9000	-149	-264	119 
5.501	-0.2256	0.1460	0.6753	34.9731	-21.3623	-63.7207	0.3241	15.9961	-166.9647	37.9300	-142	-273	121 
5.641	-0.1948	0.0908	0.9565	15.3198	0.7324	-54.6265	0.5713	16.8585	-173.5181	37.9400	-120	-289	130 
5.673	-0.2974	0.1367	0.8506	24.5361	-3.7842	-48.6450	1.8347	16.0126	-177.2589	37.9700	-101	-297	133 
5.735	-0.5649	-0.1025	1.2104	30.7617	-4.6997	33.2642	3.2355	16.0840	-179.8572	37.9600	-87	-303	142 
5.860	-0.0479	0.3135	0.7622	-14.5874	16.6016	-90.6982	2.1698	14.7986	177.3523	37.9900	-82	-308	146 
5.923	-0.1914	-0.1914	0.6631	-11.6577	7.8735	-38.8794	-1.6699	18.1329	172.8149	37.9900	-63	-308	141 
6.079	-0.3618	-0.2134	1.0283	2.0142	30.3955	-36.2549	-3.3618	21.1432	169.7937	38.0000	-42	-309	139 
6.141	-0.3506	-0.0908	1.1943	4.9438	11.2305	11.2305	-3.2684	22.0056	168.2776	38.0100	-27	-310	143 
6.298	-0.6680	-0.6274	1.3750	9.9487	26.8555	-5.4932	-3.6310	22.4286	168.1622	38.0300	-23	-309	139 
6.360	-0.5269	0.1372	0.4707	24.9023	-4.8218	9.0942	-1.2689	23.9008	167.4426	38.0300	-22	-310	140 
6.485	-0.5674	-0.0625	0.7554	36.7432	16.9678	-44.1284	-0.1978	25.5762	164.3335	38.0400	-19	-316	148 
6.532	-0.3828	0.0503	0.5381	23.2544	27.8320	-35.0952	1.8622	26.3287	161.3123	38.0400	-10	-320	157 
6.704	-0.3848	0.2607	1.1099	17.0898	2.9297	-43.7622	1.5161	27.7020	156.7145	38.0600	6	-320	167 
6.845	-0.5889	0.0112	1.0942	15.6860	-17.0288	14.2212	3.6365	27.4054	157.7856	38.0700	7	-317	172 
6.876	-0.6895	-0.2739	0.4443	-15.3809	-20.6299	-50.3540	2.3456	27.3285	155.9290	38.0600	8	-320	177 
6.907	-0.4961	0.1870	0.9097	-15.7471	2.4414	12.3291	-1.7798	29.3445	150.7709	38.0800	22	-311	171 
7.079	-0.2476	-0.2529	0.3926	-24.2920	3.6621	-8.1787	-3.5596	28.9655	152.6166	38.1000	21	-304	165 
7.126	-0.4058	-0.0352	0.9341	-15.8691	-10.1929	-27.5879	-7.9376	29.6246	148.8647	38.1000	28	-299	159 
7.298	-0.4194	-0.1968	1.2803	4.5776	12.3901	-5.3711	-8.9594	28.7402	148.8153	38.1300	29	-293	158 
7.329	-0.6870	-0.1987	1.3125	15.0757	-9.3384	4.3335	-7.9980	29.3610	148.9691	38.1200	30	-294	161 
7.517	-0.5425	0.0537	0.6821	12.0239	12.7563	51.8188	-2.7631	29.8499	154.8962	38.1400	25	-298	161 
7.548	-0.2949	-0.3325	0.6470	24.5972	-29.2358	-10.8032	-1.0052	27.9877	156.3080	38.1400	13	-305	164 
7.767	-0.4629	0.2090	0.7607	9.5215	29.4189	-11.5967	0.4999	28.0371	154.7809	38.1700	12	-309	171 
7.908	-0.3804	0.1113	0.9878	10.6201	-5.3711	-14.0381	0.8514	28.3118	154.0283	38.1800	19	-308	176 
7.970	-0.5156	0.0879	1.2129	2.1973	-2.3193	9.0332	2.0984	27.8394	154.9951	38.1900	16	-312	179 
7.970	-0.5884	-0.1973	0.7188	-7.1411	-50.2930	-7.5073	2.4554	28.4326	156.1542	38.2000	16	-311	182 
8.095	-0.4575	0.0669	0.8564	-23.0713	11.9019	-19.8975	-0.5768	28.2788	153.7097	38.2100	17	-308	175 
8.142	-0.2539	-0.1987	0.5220	-33.0200	-10.1929	13.1836	-2.7356	27.4823	155.1379	38.2100	15	-303	169 
8.298	-0.3965	-0.0020	0.7959	-16.8457	4.6997	-6.1035	-6.4325	27.9712	153.9679	38.2300	18	-297	160 
8.361	-0.3721	-0.1421	1.1563	-15.1978	19.8364	22.2778	-7.5037	28.7842	155.5994	38.2400	18	-294	157 
8.517	-0.6367	-0.2212	1.1987	-10.3149	1.8311	20.2026	-7.4872	29.3445	157.9230	38.2800	17	-292	155 
8.564	-0.5869	0.2095	0.4971	18.1274	-28.7476	61.6455	-5.1031	29.0039	160.8069	38.3000	9	-294	152 
8.595	-0.4692	-0.1230	0.8809	17.1509	-6.0425	-13.6719	-2.4554	29.7675	163.4930	38.3000	-2	-294	154 
8.751	-0.3433	0.1030	0.4106	31.1890	6.2256	-7.0801	-0.3241	28.8446	162.2626	38.3000	4	-300	166 
8.923	-0.4922	0.1108	0.9917	23.5596	6.7139	-30.9448	1.4392	30.5695	160.2136	38.3300	8	-302	173 
9.001	-0.4761	0.2158	1.2461	6.5308	-14.1602	16.5405	3.4991	30.2728	160.0598	38.3400	13	-307	181 
9.095	-0.7949	-0.1270	1.2202	-19.0430	-10.4370	15.0146	4.5703	30.2179	163.5754	38.3500	8	-305	184 
9.173	-0.4131	-0.0488	0.8286	-24.2920	4.3335	-3.9063	0.8130	30.2069	162.1198	38.3600	8	-304	174 
9.314	-0.3511	-0.0586	0.5537	-30.6396	-7.5073	3.2349	-1.4941	29.4818	163.3282	38.3500	8	-302	169 
9.361	-0.3950	-0.0376	0.7974	-14.4653	6.3477	-20.5078	-5.3558	30.1245	161.2408	38.3700	6	-297	159 
9.533	-0.3623	-0.2236	1.1631	-16.7236	11.2305	11.9019	-6.5698	30.0421	161.4880	38.3900	8	-295	152 
9.595	-0.6699	-0.1909	0.9595	-0.4883	8.2397	5.3101	-7.4707	30.0970	161.6913	38.4000	9	-290	150 
9.720	-0.6206	0.3232	0.4800	21.4233	-47.7295	54.6875	-4.8175	30.1630	164.2017	38.4200	9	-289	152 
9.767	-0.4116	-0.1270	0.8071	20.3247	-13.1836	-10.9253	-2.1039	29.2676	166.4978	38.4200	-4	-296	151 
9.814	-0.2651	0.1479	0.4316	31.6162	-6.7139	-14.0991	-0.2307	27.2406	164.5972	38.4500	-4	-301	157 
9.986	-0.3652	0.0620	0.9233	10.9253	-8.6060	-8.7891	2.0544	27.9053	164.4214	38.4500	0	-306	161 
10.017	-0.3369	0.2690	1.1714	4.3945	9.7656	-3.4180	2.7411	27.3999	164.0149	38.4600	0	-305	168 
10.173	-0.7930	0.2158	1.6406	8.8501	15.8691	12.0239	3.8892	27.9218	165.5859	38.4800	0	-304	167 
10.220	-0.5923	-0.1626	0.5811	-11.2915	12.6343	-53.7109	1.7633	27.3010	163.3887	38.4900	-1	-302	165 
10.392	-0.3501	0.0425	0.7197	-16.9678	-16.8457	2.6245	-1.2415	27.4329	160.4938	38.5000	10	-297	162 
10.408	-0.2964	-0.2388	0.5107	-29.2358	21.9116	-0.3662	-3.8837	27.2241	161.2463	38.4900	7	-293	154 
10.595	-0.2617	-0.1328	0.9600	-18.6157	-22.0337	8.9111	-6.0150	27.3065	161.6913	38.5100	10	-290	151 
10.627	-0.3232	-0.1685	1.3179	4.7607	4.3945	-9.3994	-6.9379	25.5981	162.2955	38.5300	7	-289	146 
10.767	-0.8682	0.0518	1.5142	13.8550	-16.2354	8.5449	-5.7623	26.7572	162.6086	38.5400	9	-289	151 
10.798	-0.4316	0.0229	0.6191	1.8311	21.2402	37.5366	-2.3895	25.9937	166.6681	38.5700	3	-289	146 
11.002	-0.3286	-0.1655	0.6558	32.3486	-15.9302	-14.1602	-0.7086	25.9937	167.5745	38.5700	-2	-290	150 
11.033	-0.3496	0.1440	0.6729	23.6206	23.3154	-31.6162	1.1206	26.3068	164.5203	38.5600	1	-297	159 
11.205	-0.2832	0.1685	0.9609	5.6763	15.9912	-27.5269	1.7853	28.0811	161.7517	38.5900	16	-303	167 
11.252	-0.5425	0.0649	1.1655	0.7935	13.0005	19.2261	2.6147	29.8224	162.2900	38.6000	22	-299	169 
11.377	-0.6733	-0.2271	0.7173	-15.6250	-19.8364	-12.1460	3.2135	31.2231	163.2568	38.5800	23	-303	172 
11.408	-0.5044	-0.0327	0.8862	-14.3433	-0.9766	-19.8975	-0.9723	31.7120	158.5657	38.6100	30	-298	169 
11.549	-0.3213	-0.0840	0.4604	-24.4141	-4.9438	1.4038	-3.2135	30.3992	157.8955	38.6100	35	-293	162 
11.596	-0.4346	-0.0718	0.8037	-21.9116	5.4932	-7.5684	-6.0590	31.6681	157.0331	38.6200	35	-285	153 
11.752	-0.3931	-0.1528	1.1411	-16.9067	23.4985	18.5547	-7.8058	31.6901	157.8351	38.6500	39	-284	146 
11.814	-0.8110	-0.2661	1.0742	-0.0610	5.3711	27.7100	-7.0258	32.6624	160.0598	38.6500	39	-283	147 
11.970	-0.5737	0.1851	0.3271	13.4277	-46.8750	63.2935	-3.5541	31.6461	163.6853	38.6500	30	-284	150 
12.049	-0.4683	-0.1343	0.7778	21.1182	-20.9961	-3.9673	-0.9888	31.1792	166.2341	38.6500	16	-291	147 
12.174	-0.3340	0.1050	0.4751	31.4331	2.3804	-28.9917	0.0659	29.2786	163.1689	38.6800	17	-293	151 
12.330	-0.4526	0.2202	0.9707	14.8926	8.3008	-12.0850	2.3016	30.4761	161.3562	38.7000	23	-292	159 
12.361	-0.4004	0.1318	1.2813	2.6245	-7.2021	10.1318	3.5760	30.2454	161.8835	38.7000	31	-291	166 
12.392	-0.8813	-0.0063	1.4653	-5.5542	-24.6582	2.3193	3.5925	30.6189	162.3065	38.7000	34	-293	169 
12.549	-0.5513	-0.1592	0.8022	-6.6528	13.3667	-52.2461	-1.2469	29.4379	156.4618	38.7100	38	-291	165 
12.627	-0.3262	0.0942	0.5371	-28.3813	-20.6909	10.0708	-2.9388	28.9050	154.6216	38.7300	48	-286	159 
12.767	-0.3931	-0.1880	0.7729	-22.3999	23.9868	-9.2163	-6.8005	29.8553	153.9899	38.7400	45	-281	153 
12.861	-0.3359	-0.1802	1.1875	-24.5972	10.8643	29.9072	-7.9816	29.8224	156.1926	38.7300	49	-280	148 
12.986	-0.5522	-0.0220	1.3076	1.5259	1.0376	36.3770	-7.4542	30.2673	159.4830	38.7400	45	-283	145 
13.049	-0.6543	0.1914	0.6904	19.1040	-60.9131	43.3960	-5.0482	30.4761	162.7460	38.7700	41	-286	145 
13.236	-0.4053	-0.1157	0.7930	16.6626	20.5078	-1.3428	-1.4392	29.2236	166.2671	38.7800	23	-300	147 
13.236	-0.3179	-0.0688	0.3950	41.4429	-13.0615	-40.1611	-0.3955	28.7292	162.4878	38.7700	24	-306	149 
13.392	-0.4497	0.3022	0.8828	28.5645	28.3813	-16.4185	2.7795	31.1847	159.9500	38.8000	43	-309	162 
13.455	-0.5146	0.2368	1.4141	9.3384	1.9531	22.2168	5.2625	32.2943	160.9607	38.8000	46	-313	172 
13.627	-0.8423	0.0874	1.4746	-18.1274	15.3198	14.5874	5.8832	32.2778	163.5480	38.8200	40	-316	176 
13.627	-0.4302	-0.2598	0.7773	-13.8550	-7.4463	-43.0908	0.5988	30.6354	159.2963	38.8300	38	-315	160 
13.799	-0.4165	0.0918	0.6431	-19.1040	-13.3667	-21.3623	-2.3291	29.9103	156.2036	38.8300	46	-308	155 
13.861	-0.3569	-0.1875	0.6694	-18.2495	19.6533	-23.4375	-5.9436	30.1794	153.7866	38.8400	53	-303	147 
14.111	-0.3770	-0.1460	1.0537	-10.5591	4.3335	-1.2817	-8.1573	30.3827	152.1387	38.8600	62	-297	144 
14.205	-0.4004	-0.0664	1.4902	11.5967	16.4185	0.0000	-8.8330	31.0748	151.5344	38.8700	63	-293	141 
14.236	-0.6860	-0.1313	0.9609	36.4990	-21.5454	-16.1133	-7.3773	31.4539	150.0842	38.8800	70	-293	148 
14.362	-0.4189	-0.2061	0.7559	41.8701	-40.4663	-13.5498	-4.3231	30.4816	148.7659	38.8700	72	-291	156 
14.408	-0.3076	0.1499	0.3081	58.6548	-9.6436	-44.0063	-1.9446	27.4933	144.3054	38.8900	73	-289	159 
14.440	-0.4565	-0.1636	0.9966	26.7334	-10.3149	-25.1465	1.8677	28.8940	143.2727	38.8900	81	-290	171 
14.596	-0.2354	0.0244	0.7983	35.9497	-23.4985	-80.2002	1.9281	26.0486	137.8070	38.9100	89	-283	175 
14.658	-0.4907	0.2168	0.9365	42.3584	-2.9297	-82.9468	1.2964	25.4224	128.9575	38.9200	106	-265	179 
14.705	-0.0957	-0.2832	0.9805	34.4238	-44.3115	-91.7969	1.9995	22.9340	122.6239	38.9300	120	-252	182 
14.830	-0.6201	-0.0435	0.8613	41.1987	-5.5542	-54.1992	1.0272	22.7417	112.6923	38.9500	131	-229	182 
14.893	-0.4785	0.0464	1.0352	20.8130	26.8555	-110.9619	-1.3623	23.9447	103.1836	38.9500	142	-206	184 
15.065	-0.3071	-0.1846	0.5859	11.5967	-7.4463	-77.6367	-4.3341	23.5876	96.3721	38.9600	149	-182	190 
15.190	-0.4302	-0.1279	0.9302	15.6860	21.1182	-33.7524	-5.3888	24.9664	91.4612	38.9800	150	-163	194 
15.252	-0.2686	-0.1426	0.8149	34.8511	12.4512	-33.5693	-4.8505	24.8730	88.9453	39.0000	148	-151	193 
15.283	-0.3218	-0.0688	1.1514	37.7808	5.1270	-29.9683	-2.9608	25.6146	86.8854	39.0100	149	-140	195 
15.487	-0.8237	-0.5747	1.4238	28.0762	-9.7656	-52.4902	-1.1700	23.8403	85.4132	39.0100	140	-134	196 
15.596	-0.5479	0.3535	0.3618	56.1523	-41.8091	-62.7441	-1.4227	22.3297	77.8766	39.0200	129	-115	185 
15.658	-0.5869	-0.3818	1.1587	48.1567	12.5732	-127.5635	-1.0052	22.3077	71.2408	39.0400	116	-105	179 
15.705	-0.5308	0.1704	0.5825	82.4585	2.1362	-111.7554	0.9613	22.0166	61.0236	39.0500	97	-88	166 
15.846	-0.3955	0.2407	0.7622	72.1436	-13.3057	-105.5908	3.6365	23.1097	52.0422	39.0600	75	-75	154 
15.909	-0.3115	0.1958	0.8770	51.2695	4.8828	-58.5938	7.2015	23.8074	49.0704	39.0700	52	-73	145 
16.018	-0.3262	0.1187	1.2500	37.0483	14.8315	-89.7827	8.8000	24.9719	46.2854	39.0800	38	-70	136 
16.096	-0.9590	0.2847	1.5781	18.7988	25.3906	-5.7983	8.7561	28.7622	45.0385	39.0900	25	-65	129 
16.283	-0.8457	0.1157	0.9771	-1.2817	50.2319	-57.1899	4.2957	30.6793	42.5281	39.0900	18	-62	131 
16.315	-0.4497	-0.1646	0.6240	-2.9297	-28.4424	-52.7344	1.6260	29.9872	43.3575	39.0900	11	-60	137 
16.440	-0.4663	0.1147	0.6665	-6.3477	13.9160	-61.2793	-3.6200	29.3939	38.3698	39.0900	-3	-53	136 
16.487	-0.4102	0.0386	0.7109	-18.7378	4.6997	18.4937	-5.4053	30.4761	42.1271	39.0900	-10	-51	136 
16.690	-0.4995	-0.2095	1.3203	-10.7422	4.7607	-25.6348	-6.6138	30.9430	46.7578	39.1100	-9	-49	138 
16.721	-0.9092	-0.3984	1.4790	11.4136	15.5029	-9.4604	-7.6520	31.1517	48.3508	39.1200	-12	-43	143 
16.862	-0.5464	-0.0029	0.5093	19.5313	-14.0381	10.4370	-4.0759	29.9707	54.1736	39.1300	-11	-45	145 
16.924	-0.3799	-0.1016	0.5791	27.2827	-8.6670	-10.5591	-2.0984	28.4161	56.7554	39.1600	-12	-50	141 
17.096	-0.4268	0.2305	0.6855	7.8735	17.3950	3.8452	-0.0110	29.9213	60.3424	39.1600	-18	-51	134 
17.127	-0.4336	0.1128	1.1387	-3.9673	8.2397	6.8970	0.9558	30.9265	66.1377	39.1600	-16	-55	134 
17.268	-0.6226	0.3901	1.0908	-15.8081	-3.1128	-1.4038	0.2362	30.0641	70.6146	39.1900	-16	-50	140 
17.315	-0.6304	-0.3804	0.3262	-14.7095	1.0986	-59.9976	-2.1643	29.7125	71.8890	39.1800	-15	-50	145 
17.440	-0.4453	0.0557	0.7495	-2.9297	-7.2632	-26.9775	-6.0480	29.9817	68.0054	39.1800	-24	-46	145 
17.518	-0.2046	-0.2227	0.2813	-22.8271	14.2822	-8.1177	-7.9926	29.7839	69.7028	39.1900	-28	-40	151 
17.659	-0.4292	-0.2744	1.0293	-12.7563	-5.2490	-32.8979	-11.8213	30.6299	66.3025	39.2000	-29	-40	151 
17.706	-0.4912	0.2920	1.2153	-10.4980	3.1738	41.7480	-12.5079	31.2177	69.4391	39.2300	-34	-35	154 
17.862	-0.8940	-0.0205	0.9893	13.9771	-32.8369	44.3726	-9.3878	34.2004	77.1460	39.2300	-26	-40	158 
17.909	-0.3652	-0.0483	0.6567	8.7280	1.8921	22.0947	-4.6472	32.7338	83.9795	39.2300	-16	-42	158 
18.065	-0.3232	-0.0107	0.4604	24.2920	-27.0996	-4.5776	-2.6697	31.4044	86.0889	39.2400	-11	-49	154 
18.127	-0.4810	0.1353	0.8442	9.2773	11.2915	-8.1787	-0.4834	32.2449	88.5938	39.2500	-8	-49	151 
18.268	-0.5601	0.2866	1.3374	-3.1738	20.8740	33.3862	1.8292	33.3270	93.8672	39.2800	-9	-54	148 
18.331	-0.6235	0.0811	1.1860	-7.5684	20.0806	26.4282	2.9169	32.3492	100.2832	39.2900	-5	-56	153 
18.503	-0.7642	-0.1660	0.8691	-18.6157	16.7236	-43.6401	-0.2197	33.0634	99.4922	39.2900	0	-54	156 
18.503	-0.4077	0.1118	0.5996	-7.3853	-17.9443	-34.3018	-3.3014	31.9043	96.7456	39.2900	-3	-47	158 
18.659	-0.3486	-0.2222	0.5742	-18.6157	9.9487	-31.8604	-6.6852	31.7120	94.4330	39.2900	-7	-44	164 
18.706	-0.3740	-0.0464	0.8286	-13.0615	7.4463	-1.7090	-9.2450	32.0636	92.7576	39.3300	-12	-44	165 
18.878	-0.5605	-0.0625	1.3540	-9.0942	12.5122	30.3345	-9.4482	33.4259	95.7898	39.3200	-8	-43	172 
18.925	-0.7881	0.0796	1.1128	4.5776	-23.2544	26.9775	-7.6080	34.6014	99.5416	39.3600	3	-42	175 
19.081	-0.5249	-0.1025	0.8389	14.5874	-8.6670	7.8735	-4.5758	33.8049	103.3264	39.3500	9	-49	175 
19.143	-0.3867	-0.0928	0.5669	30.4565	-22.3999	-19.9585	-2.5928	31.2231	102.6343	39.3500	4	-52	168 
19.300	-0.5146	0.2056	0.8628	22.1558	12.9395	-20.9351	-0.5603	31.9922	101.5521	39.3600	0	-56	163 
19.331	-0.4390	0.2339	1.3154	9.4604	15.4419	4.2114	1.4172	31.8439	103.4802	39.3600	-4	-57	160 
19.503	-0.7207	0.0474	1.4219	-21.2402	5.1880	47.6685	3.7244	31.8219	110.1160	39.3900	1	-60	158 
19.550	-0.6533	-0.2432	0.8462	-13.9771	11.1084	-52.3071	-0.9558	31.9592	107.1332	39.4000	1	-55	165 
19.659	-0.3545	0.1689	0.5146	-21.6675	-12.3291	-9.7046	-3.0103	30.6519	105.6500	39.4100	-4	-53	167 
19.690	-0.4253	-0.1841	0.7661	-8.6060	21.5454	-24.4141	-6.7291	31.5802	102.4805	39.4200	-6	-50	171 
19.893	-0.3301	-0.1826	1.1309	-17.2119	17.9443	3.2959	-7.7234	31.8054	102.9858	39.4200	-7	-45	174 
19.956	-0.5649	-0.2803	1.0962	13.6108	-17.2119	16.4185	-7.5146	31.7560	104.4855	39.4400	-2	-43	179 
20.128	-0.5928	0.2051	0.3721	28.9307	-38.8794	24.4751	-4.3341	30.8990	105.0238	39.4500	-5	-41	178 
20.128	-0.4858	-0.0786	0.7373	26.2451	-6.9580	7.3853	-1.5381	31.7065	106.8530	39.4400	0	-45	173 
20.253	-0.3569	0.0708	0.4756	24.7192	3.1738	-25.1465	0.1428	31.1957	105.2820	39.4600	-5	-46	168 
20.315	-0.4443	0.2271	1.0259	22.0947	8.5449	-2.1362	2.3071	32.6239	105.6775	39.5000	-10	-48	160 
20.503	-0.4771	0.2144	1.3223	-3.5400	-0.2441	26.1230	5.1526	32.8107	110.2094	39.4900	-8	-49	164 
20.565	-0.8071	0.0044	1.3867	-31.7383	-12.6953	39.0015	4.9658	32.3767	115.2521	39.5000	-2	-48	165 
20.706	-0.5210	-0.2959	0.7949	-7.5684	-6.7139	-42.3584	-0.4944	30.1849	110.7422	39.5000	-4	-43	172 
20.706	-0.3882	0.1831	0.5337	-24.9023	-25.1465	19.4702	-1.7853	29.6136	109.5721	39.4900	-10	-36	171 
20.909	-0.3384	-0.2314	0.7173	-12.6953	38.8794	-14.8926	-5.1086	30.8990	107.6276	39.5100	-11	-32	178 
20.971	-0.4141	-0.0591	1.1821	-16.1743	15.9302	26.2451	-5.5975	32.1240	108.8031	39.5300	-5	-33	182 
21.112	-0.7051	-0.3652	1.1411	3.8452	23.1323	6.0425	-5.4602	33.1952	109.5007	39.5200	-4	-31	187 
21.159	-0.5728	0.0000	0.4961	24.1699	-28.5645	39.0015	-1.9446	33.1348	111.7255	39.5500	-1	-30	183 
21.190	-0.4077	0.0298	0.6738	27.7100	-21.3623	-2.3193	0.6042	32.1240	112.4396	39.5400	3	-29	175 
21.331	-0.3169	0.0186	0.5391	18.3716	-1.0986	-8.3008	2.5598	30.4266	111.7090	39.5700	-2	-32	167 
21.519	-0.3169	0.2393	0.8916	12.5732	12.4512	19.7754	5.2075	30.9814	113.6481	39.5800	-1	-31	160 
21.534	-0.4575	0.1807	1.2612	-18.1274	-7.4463	26.3672	6.8555	31.4154	118.5919	39.5800	-1	-34	154 
21.597	-0.7969	-0.0923	1.5562	-26.7334	0.5493	-7.1411	4.2682	31.3934	119.7235	39.5900	6	-30	162 
21.769	-0.6372	-0.1743	0.7007	-17.8833	16.5405	-78.6743	-1.3458	30.7837	112.8351	39.6000	1	-21	168 
21.878	-0.3730	0.0967	0.6626	-12.0239	-13.1836	-32.1045	-5.9766	30.1959	105.2490	39.6000	-16	-11	164 
21.956	-0.3145	-0.1538	0.5498	-13.3057	14.3433	-12.6953	-7.9211	30.0861	103.1781	39.6200	-25	-8	166 
22.003	-0.2241	-0.1641	0.8760	-16.2354	8.4839	23.7427	-8.9648	30.8936	101.5576	39.6300	-25	-2	173 
22.175	-0.5068	-0.0986	1.3481	0.0000	1.0376	16.8457	-9.7394	32.6514	100.2667	39.6400	-15	-4	174 
22.284	-0.7695	0.2437	0.8936	33.4473	-37.4146	27.7100	-8.0750	32.9974	99.7229	39.6300	-11	0	175 
22.331	-0.4390	0.0039	0.6621	15.3809	-7.3853	20.0806	-2.7356	31.4594	104.3317	39.6500	-6	-1	164 
22.378	-0.3721	0.1196	0.5615	28.5034	-25.4517	25.9399	0.7416	30.1520	105.8478	39.6500	-3	-6	153 
22.565	-0.3735	0.0342	0.7651	4.1504	21.4844	5.7983	3.3838	30.4376	108.0725	39.6600	-4	-9	145 
22.597	-0.3208	0.1094	1.1211	-1.2207	7.2021	4.2725	3.9276	30.4047	108.8416	39.6800	-1	-13	149 
22.784	-0.6670	0.3662	1.0156	-4.6997	24.5972	17.2729	4.7681	30.8936	111.6376	39.6800	6	-7	144 
22.815	-0.4766	-0.3804	0.5610	-1.1597	-18.4326	-55.0537	2.8235	30.4541	109.1272	39.6900	10	-6	147 
22.940	-0.5015	0.0625	0.8179	-2.1362	9.5215	-59.2041	-1.6809	31.8988	99.3713	39.7000	-9	-6	140 
23.003	-0.2524	-0.1563	0.4487	-22.0337	-15.5029	-29.7241	-5.3284	30.5585	95.0208	39.7000	-25	-1	138 
23.159	-0.4482	0.0195	0.9863	-6.4697	5.3711	-6.5308	-8.8165	30.6134	89.1925	39.7200	-34	2	141 
23.222	-0.3662	-0.2471	1.3374	-12.5732	9.8267	12.6953	-9.2615	30.3772	88.5278	39.7100	-36	4	141 
23.363	-0.6855	-0.5073	1.3613	-3.7842	27.5269	5.1270	-9.0472	31.2231	86.9238	39.7400	-33	0	144 
23.425	-0.5005	-0.0903	0.4375	11.1084	-2.6245	50.9644	-3.9221	31.0968	92.9224	39.7400	-22	-3	137 
23.534	-0.3789	-0.1426	0.5767	36.3770	-12.4512	-10.0708	-0.7581	31.3440	93.9276	39.7500	-18	-11	126 
23.753	-0.4722	0.2632	0.7969	38.1470	9.7656	-20.2637	1.8292	30.9924	92.4005	39.7500	-25	-17	116 
23.816	-0.4204	0.2241	0.8750	19.7144	4.1504	11.7798	5.3394	31.6516	95.7513	39.7700	-28	-24	108 
23.831	-0.3262	0.1289	0.6890	-6.2256	21.3623	26.5503	8.0640	32.4646	102.3761	39.7800	-28	-28	102 
23.988	-0.4048	0.0630	0.8198	-11.5356	25.8789	-16.3574	7.8333	34.4366	106.3586	39.7800	-20	-28	101 
24.112	-0.6724	0.3813	1.4438	-5.2490	23.8037	9.8877	6.3391	37.1063	107.5507	39.7900	-16	-25	106 
24.159	-0.8135	0.2412	1.2163	9.7046	30.3955	6.4697	8.7836	37.7325	111.6431	39.8100	-8	-24	105 
24.206	-0.7383	0.0903	0.6855	-18.6768	23.0103	-34.6069	6.3226	39.9573	110.0391	39.8100	-6	-26	105 
24.347	-0.4053	-0.0869	0.5483	-33.0811	-47.3022	-19.5923	1.3348	37.8040	107.1716	39.8200	-12	-19	107 
24.425	-0.4868	-0.0068	0.6055	-22.5830	-16.6626	-9.6436	-3.3453	34.8486	104.0131	39.8100	-25	-14	109 
24.581	-0.4907	-0.2173	0.7656	-7.6904	-24.4141	-4.2114	-5.2405	32.7502	102.2443	39.8300	-31	-8	111 
24.597	-0.4199	-0.1553	0.7773	7.8125	-4.2114	-22.7661	-6.4709	31.3275	97.7673	39.8400	-40	-9	116 
24.816	-0.4360	-0.0522	0.7832	18.5547	15.6860	-27.0386	-7.0038	31.3165	91.7468	39.8600	-48	-9	110 
24.941	-0.3872	-0.1665	1.0049	16.5405	4.8218	-4.6387	-5.7184	32.4811	89.8407	39.8800	-54	-9	107 
24.972	-0.2993	0.0840	0.8633	17.0898	15.0757	-6.5308	-4.6637	32.8931	88.5333	39.8900	-51	-13	103 
25.003	-0.6157	-0.1025	1.0601	2.5024	-8.1787	21.9116	-1.6095	33.3105	96.2457	39.9000	-51	-17	99 
25.128	-0.6406	-0.2852	1.1973	-7.8125	-3.4790	-40.2832	-4.2737	33.1512	92.9828	39.9000	-54	-13	98 
25.207	-0.4014	-0.1108	0.4805	25.7568	-19.6533	11.2305	-2.5928	30.5640	95.1031	39.9200	-60	-20	100 
25.363	-0.6948	-0.0947	1.0098	14.7705	-24.7803	-76.4160	-3.9111	29.4763	91.1646	39.9200	-70	-22	97 
25.410	-0.5537	-0.2368	0.7681	49.7437	-3.1738	-96.3745	-4.6582	27.0154	81.1615	39.9400	-96	-28	92 
25.581	-0.5781	0.0410	0.8403	69.6411	-1.5259	-139.3433	-4.8450	26.4386	71.0321	39.9500	-120	-47	86 
25.644	-0.5273	-0.0669	0.9238	64.0869	-7.7515	-161.9263	-6.0535	24.9554	60.6171	39.9500	-146	-77	80 
25.753	-0.4971	0.0532	0.7612	65.0024	-0.3052	-155.3345	-7.0477	23.2745	49.6527	39.9800	-167	-115	72 
25.832	-0.4531	0.0156	0.7588	36.6821	0.2441	-163.8794	-9.3768	21.6266	38.5730	39.9800	-168	-161	72 
26.003	-0.7871	-0.3062	1.1792	47.1191	40.5884	-113.7695	-12.2113	21.5991	29.5532	39.9700	-158	-193	72 
26.066	-0.4668	-0.2598	0.8125	47.7295	13.2446	-114.5630	-11.6675	20.8630	26.4221	39.9900	-139	-215	77 
26.207	-0.3486	0.0039	1.0474	36.3770	-3.4180	-100.2197	-12.2937	19.9347	20.2643	40.0100	-112	-233	78 
26.238	-0.3921	-0.1089	0.9072	31.3110	20.1416	-90.1489	-12.6947	19.1492	17.1112	40.0000	-88	-250	87 
26.394	-0.3311	-0.0952	0.9351	36.4990	2.5635	-82.3364	-12.3376	18.2813	14.6613	40.0100	-62	-263	95 
26.441	-0.2769	-0.1177	0.8027	34.3018	8.6060	-74.4629	-11.0852	17.4078	13.8263	40.0100	-40	-268	106 
26.597	-0.4126	-0.1289	1.1123	30.8838	11.1694	-36.6211	-10.2612	18.0121	14.1614	40.0000	-14	-271	111 
26.644	-0.2256	-0.0757	0.8716	25.6348	-2.6245	-36.9263	-8.6847	17.3584	16.7981	40.0300	0	-277	124 
26.785	-0.3628	0.0576	0.9478	32.2876	14.7705	29.4800	-5.8337	18.0835	22.7142	40.0300	9	-279	126 
26.847	-0.3413	-0.1274	0.8125	-8.8501	-14.2212	-14.2212	-4.8285	18.8745	30.9375	40.0500	9	-287	134 
26.879	-0.3911	-0.0771	0.9644	-2.9907	-7.0190	-4.8828	-5.6909	17.7814	36.9415	40.0600	6	-286	130 
27.019	-0.4155	-0.0815	0.8901	1.0986	-17.9443	-11.7798	-6.6028	15.8478	41.8744	40.0700	4	-283	129 
27.191	-0.3384	0.1660	0.8613	2.2583	-11.7188	15.8691	-5.9985	14.9579	48.7793	40.0700	6	-284	124 
27.238	-0.3711	-0.1177	1.0483	14.6484	-2.8687	-4.3945	-5.5646	15.4523	55.4810	40.0700	-1	-284	121 
27.410	-0.2944	0.0459	0.8525	15.6250	2.1362	-17.5171	-3.9441	15.4742	59.6997	40.0800	0	-289	123 
27.457	-0.3418	0.0688	0.9585	6.6528	-2.8687	-14.8315	-3.4058	16.0291	63.4570	40.1000	5	-294	130 
27.597	-0.2842	0.0313	0.9526	7.3853	-4.0283	-19.4702	-3.2684	15.8368	67.0056	40.1100	13	-291	133 
27.644	-0.3169	0.0024	0.9668	0.7324	1.3428	-21.7285	-3.3508	15.9302	70.1038	40.1200	20	-289	131 
27.676	-0.3418	-0.0332	0.9526	-2.6855	9.5825	-24.1089	-4.2352	16.4575	72.6416	40.1300	26	-289	134 
27.832	-0.3809	0.0366	0.9565	1.6479	-0.1221	-7.0190	-4.6472	17.3639	75.8221	40.1400	33	-288	133 
27.894	-0.3086	-0.0225	0.9546	-0.1831	1.7090	-11.5356	-4.7571	17.4518	79.7113	40.1300	36	-286	134 
28.004	-0.3296	-0.0396	0.9326	2.3193	2.8076	-8.9111	-4.8560	17.7319	83.1171	40.1600	37	-283	135 
28.097	-0.3403	-0.0039	0.9224	2.2583	0.2441	-4.0894	-4.6637	18.1274	86.7810	40.1700	41	-282	136 
28.254	-0.3501	-0.0088	0.9507	-2.9907	-1.8921	3.6011	-4.6033	18.4186	90.9119	40.1700	43	-284	130 
28.426	-0.3262	-0.0303	0.9663	-4.3335	-2.0752	3.7842	-4.6802	18.3307	95.3778	40.2000	43	-285	133 
28.473	-0.3096	-0.0254	0.9468	-1.1597	-2.8076	2.3193	-4.7021	18.1000	99.3713	40.2000	42	-285	132 
28.504	-0.3101	-0.0063	0.9458	-2.7466	-1.7700	7.2632	-4.5099	18.0450	103.4308	40.2100	38	-284	132 
28.645	-0.3271	-0.0313	0.9629	-3.6011	-3.1738	10.0098	-4.3835	18.1439	107.8363	40.2200	35	-283	132 
28.707	-0.3062	-0.0342	0.9546	-3.8452	-4.1504	9.7656	-4.3286	17.8693	111.9946	40.2300	33	-285	135 
28.848	-0.3037	-0.0576	0.9551	-2.6245	-2.8687	4.3945	-4.3396	17.6056	115.7739	40.2400	32	-289	133 
28.895	-0.2871	-0.0444	0.9551	-1.7090	-1.2817	1.4038	-4.3671	17.3859	118.9105	40.2300	27	-285	132 
29.067	-0.2979	-0.0537	0.9648	-0.4883	-1.5259	-2.3193	-4.4110	17.2870	121.5637	40.2600	27	-287	132 
29.254	-0.2881	-0.0410	0.9575	1.5869	-1.5869	-5.9814	-4.3781	17.1387	123.6841	40.2700	29	-283	128 
29.332	-0.2930	-0.0278	0.9595	2.0142	1.0376	-2.9907	-4.2462	17.1112	125.5408	40.2900	28	-285	130 
29.442	-0.2798	-0.0229	0.9619	-0.5493	-1.7090	-0.7935	-4.0540	17.0673	127.7600	40.2700	32	-284	128 
29.442	-0.2900	-0.0376	0.9756	-1.0376	-1.6479	1.8921	-3.9551	16.9794	130.1385	40.3000	31	-282	132 
29.504	-0.2769	-0.0337	0.9536	0.3052	-1.4648	0.0610	-3.8507	16.7926	132.2809	40.3000	29	-282	127 
29.629	-0.2827	-0.0352	0.9644	-0.2441	1.3428	-0.4272	-3.7354	16.8256	134.2584	40.3300	29	-284	126 
29.692	-0.2998	-0.0264	0.9634	-0.5493	0.8545	1.3428	-3.6475	16.9849	136.1261	40.3400	34	-284	128 
29.848	-0.2871	-0.0425	0.9590	-0.7935	0.7935	0.6714	-3.6035	17.0233	137.9498	40.3500	35	-286	129 
29.926	-0.2944	-0.0415	0.9590	-0.4883	-0.3052	-1.4038	-3.6035	17.0947	139.4934	40.3600	33	-284	127 
30.051	-0.2920	-0.0366	0.9619	-0.7935	0.2441	0.4272	-3.6200	17.0892	140.9052	40.3700	34	-280	131 
30.145	-0.2891	-0.0503	0.9634	-1.1597	2.5635	2.1973	-3.6145	17.1442	142.4707	40.3700	33	-286	130 
30.254	-0.2827	-0.0376	0.9551	-1.1597	0.9766	0.6104	-3.5870	17.2046	143.9099	40.4100	32	-281	128 
30.317	-0.2964	-0.0581	0.9580	-1.0376	1.0376	0.0610	-3.6200	17.3145	145.2612	40.4000	31	-281	130 
30.411	-0.2998	-0.0420	0.9478	0.8545	1.7090	-1.5869	-3.6255	17.4628	146.2225	40.4300	34	-283	129 
30.505	-0.3125	-0.0391	0.9541	-0.7935	3.4180	-0.8545	-3.5431	17.7539	147.1838	40.4200	36	-284	130 
30.661	-0.2944	-0.0483	0.9473	-1.2817	2.5635	1.2817	-3.6255	17.9187	148.1726	40.4700	33	-283	128 
30.723	-0.3037	-0.0527	0.9463	0.0610	1.2817	-0.8545	-3.6255	18.1055	149.0955	40.4600	36	-281	130 
30.895	-0.3086	-0.0361	0.9497	-0.6714	0.1831	1.7700	-3.5431	18.2538	150.0073	40.4900	38	-280	130 
30.926	-0.3101	-0.0488	0.9551	-0.3052	-0.6104	2.5024	-3.4772	18.2758	151.0291	40.5000	36	-285	132 
31.067	-0.3135	-0.0527	0.9551	-0.1221	-0.2441	1.0986	-3.3948	18.2538	152.0013	40.5200	33	-282	130 
31.130	-0.3096	-0.0469	0.9590	-0.6714	0.5493	0.6104	-3.3289	18.2098	152.8198	40.5100	36	-281	130 
31.255	-0.3027	-0.0527	0.9419	1.5869	1.6479	-1.4648	-3.2629	18.2373	153.5065	40.5100	34	-284	132 
31.333	-0.3159	-0.0205	0.9541	2.6855	1.2817	1.4038	-2.9443	18.4515	154.0558	40.5300	39	-287	131 
31.427	-0.3091	-0.0210	0.9448	-0.3662	-0.4272	4.7607	-2.6422	18.5065	154.9457	40.5400	36	-283	132 
31.520	-0.3047	-0.0347	0.9492	-3.7842	-1.6479	6.4697	-2.6093	18.3966	156.1542	40.5600	35	-285	130 
31.630	-0.3042	-0.0361	0.9570	-3.4180	-2.3193	5.1270	-2.7521	18.1824	157.2418	40.5700	35	-283	131 
31.755	-0.3037	-0.0444	0.9556	-1.5869	-1.2817	5.6152	-2.7740	18.0396	158.2526	40.5700	32	-283	127 
31.833	-0.3018	-0.0337	0.9502	-2.5024	-2.8687	6.2866	-2.7246	17.8748	159.2688	40.6100	30	-286	130 
31.927	-0.2964	-0.0391	0.9492	-2.4414	-0.9155	4.1504	-2.8290	17.5781	160.1862	40.6100	27	-290	130 
32.067	-0.2803	-0.0498	0.9614	-0.3662	0.6104	2.6855	-2.8400	17.6001	160.9552	40.6400	26	-285	126 
32.130	-0.2861	-0.0293	0.9570	1.2817	-0.4883	-0.2441	-2.6971	17.5616	161.3892	40.6500	27	-287	128 
32.286	-0.2617	-0.0391	0.9575	1.6479	1.4038	0.7324	-2.5543	17.5342	161.6968	40.6500	24	-286	129 
32.348	-0.2988	-0.0488	0.9634	2.2583	0.1831	0.0000	-2.2522	17.7649	162.2406	40.6800	27	-285	128 
32.473	-0.3218	0.0747	0.9072	-3.8452	2.3804	9.2773	-2.0380	17.9956	162.7515	40.6800	27	-289	131 
32.567	-0.3306	-0.0825	1.0293	-11.7188	9.5215	27.0386	-1.6699	18.9404	165.5695	40.7100	22	-286	129 
32.645	-0.2578	0.0190	0.9458	10.8032	2.9907	10.8643	-1.2799	19.3469	167.3383	40.7200	16	-287	130 
32.770	-0.2695	-0.0474	0.9658	7.4463	12.0850	6.7749	0.1483	20.0006	168.7061	40.7200	16	-291	134 
32.848	-0.2065	-0.0195	0.9502	6.2256	8.3008	-10.4370	0.6042	20.4620	168.5248	40.7200	17	-294	137 
32.942	-0.2261	-0.0762	1.0229	10.6812	4.7607	-35.4004	0.2802	20.7642	166.3165	40.7200	21	-295	139 
32.974	-0.1963	0.2388	1.0273	18.0664	4.2725	-24.9634	0.8624	20.3687	163.2294	40.7500	34	-293	141 
33.145	-0.5186	0.3721	1.1470	9.2163	1.8921	38.2080	2.8729	21.3245	163.0701	40.7300	41	-293	147 
33.302	-0.3472	-0.1953	0.6069	-24.7192	-7.2632	-21.1792	3.0542	20.4016	165.5035	40.7500	31	-298	149 
33.349	-0.5435	-0.0020	1.0864	19.4092	7.3853	-6.7139	-0.2252	21.7310	160.7025	40.7300	37	-292	144 
33.380	-0.3154	-0.0513	0.7515	-24.0479	-15.1978	-20.6909	-0.6812	20.8356	159.9390	40.7600	38	-293	143 
33.552	-0.3091	-0.1387	0.8013	4.2114	9.5215	1.6479	-2.5928	20.9454	158.9227	40.7600	37	-285	138 
33.583	-0.2471	0.0415	0.8076	16.7236	-8.1787	26.9775	-0.6757	21.4014	160.4224	40.7800	40	-290	147 
33.771	-0.1240	-0.1191	0.6533	-5.0659	-9.1553	23.0103	0.2142	19.3689	162.8339	40.7800	25	-295	148 
33.911	-0.6694	0.0864	0.7793	-8.9111	28.5645	33.0200	0.6482	19.1162	165.9705	40.8100	13	-298	149 
33.974	-0.8423	-0.0518	1.7837	16.2964	-27.8320	-64.0259	-2.2357	21.8243	162.4988	40.7800	14	-298	150 
34.067	-0.0962	0.3828	0.5674	-1.9531	-26.9775	59.8755	0.4175	18.0890	162.8723	40.8000	19	-301	154 
34.130	-0.3574	-0.1924	1.0591	-26.1230	15.7471	-24.6582	-1.6974	19.0009	165.7013	40.8000	4	-300	149 
34.177	-0.1504	0.3911	0.6196	-11.2915	-23.3154	3.2349	-4.1089	16.6937	162.4768	40.8100	8	-295	147 
34.333	-0.7358	-0.5498	1.0537	-17.0898	43.7012	7.2021	-2.2742	17.0288	167.6843	40.8200	-5	-297	139 
34.505	-0.7720	-0.4722	2.2915	40.1611	-27.0386	42.6636	-0.7416	18.1769	168.5248	40.8300	-14	-296	148 
34.583	-0.1699	0.0444	0.4902	-14.7095	17.3950	-5.5542	1.1151	16.8475	170.8044	40.8300	-22	-298	154 
34.599	-0.3975	-0.1006	1.0293	2.0752	20.2637	11.3525	-0.1208	21.0992	170.7990	40.8200	-21	-301	150 
34.724	-0.0557	-0.1377	0.4443	12.0239	-23.6816	14.7095	2.0599	18.3197	173.9081	40.8300	-23	-301	156 
34.786	-0.5659	-0.0581	0.6875	7.1411	34.7900	-60.7300	0.2802	17.5287	171.2659	40.8400	-36	-303	155 
34.958	-0.7510	0.0640	1.5752	-5.1880	-13.0005	-17.1509	-0.3735	21.2146	169.2828	40.8400	-23	-297	164 
35.083	-0.2036	0.1235	0.8740	12.0850	-39.2456	20.8130	-2.1149	19.4568	167.5909	40.8400	-18	-291	163 
35.161	-0.4487	-0.0615	1.0566	-10.0098	65.0635	-35.7056	-0.3351	19.7644	171.3922	40.8600	-27	-296	161 
35.192	-0.0479	0.2798	0.6479	-7.2632	-68.0542	-3.7842	-2.8510	17.5946	167.7942	40.8700	-21	-289	160 
35.349	-0.1660	0.1055	0.6904	-7.6294	17.7612	77.2095	-0.3900	13.7274	173.6060	40.8600	-29	-288	156 
35.411	-0.6821	-0.2368	1.2114	32.2266	-26.4893	7.3242	1.8347	16.6058	177.7423	40.8700	-44	-286	154 
35.567	-0.1602	0.1455	0.8286	15.2588	14.2212	-11.0474	3.9990	16.0510	177.1271	40.8800	-49	-284	160 
35.708	-0.2915	0.0396	0.6274	-6.7139	28.3813	-15.1978	2.1753	19.3304	174.7375	40.8900	-42	-286	161 
35.771	-0.2417	-0.0962	1.0972	38.3301	-43.1519	31.1890	5.0208	19.7150	177.2150	40.8900	-38	-285	168 
35.802	0.0347	-0.1895	0.3481	-1.2207	-11.2915	-51.8799	4.9603	15.5731	177.2040	40.9000	-48	-286	174 
35.942	-1.0972	0.6646	1.3823	-9.6436	55.8472	-37.4146	2.9718	17.2980	171.2714	40.8900	-36	-282	178 
36.114	-0.8574	0.0786	2.1108	-24.0479	8.6670	-72.8760	0.3406	18.6768	169.4366	40.9200	-34	-275	176 
36.192	-0.1426	0.2354	0.3799	22.8271	-17.8833	54.7485	0.3296	16.6882	168.9697	40.9100	-29	-271	171 
36.192	-0.4619	-0.1411	1.1812	-13.3667	22.2778	-34.2407	1.0052	19.3689	170.7880	40.9200	-31	-275	174 
36.302	-0.0161	0.3926	0.2803	-9.0942	-37.3535	-5.9814	-0.9448	15.0787	167.1075	40.9300	-27	-272	168 
36.396	-0.3853	-0.3218	0.7729	-10.1318	7.3853	82.5806	1.4832	15.8698	173.8971	40.9400	-34	-267	167 
36.537	-0.7676	0.1318	2.2192	34.3018	-8.1787	-12.5122	1.6479	17.6825	171.9305	40.9400	-39	-267	168 
36.630	-0.0654	0.0537	0.6973	-25.3906	-2.5024	-0.4883	4.2133	14.0900	174.4354	40.9200	-43	-265	173 
36.755	-0.5693	0.0605	1.0601	-5.1270	39.3066	9.7656	0.5658	18.0121	173.4631	40.9200	-42	-266	164 
36.818	-0.1387	-0.1460	0.9766	16.2964	-26.3062	61.6455	3.5101	16.7981	179.7418	40.9300	-46	-265	164 
36.974	0.1816	-0.5073	0.3579	4.8218	-10.0098	-67.5049	2.3511	12.7551	-179.5001	40.9300	-54	-266	170 
37.115	-0.8662	0.6069	1.1919	24.9634	12.8174	-36.3770	3.0322	14.4031	174.1003	40.9500	-40	-263	170 
37.208	-0.8804	0.2666	2.0737	-21.2402	31.7993	-43.3350	2.1423	15.8698	173.4137	40.9500	-35	-259	172 
37.208	-0.1626	0.0068	0.6958	9.6436	-24.4141	37.3535	-0.0439	15.5786	172.9688	40.9500	-26	-254	165 
37.333	-0.2798	0.0483	1.0059	-17.6392	25.7568	-19.1650	1.7029	16.6937	176.3086	40.9600	-30	-257	167 
37.412	-0.0479	0.1563	0.8193	-15.0146	-34.6680	8.1177	-0.6866	14.7327	174.7211	40.9700	-26	-257	163 
37.521	-0.2900	0.3911	0.4902	-8.4839	-1.2817	69.8242	0.0439	13.5242	178.2037	40.9900	-31	-255	158 
37.583	-0.6709	-0.5098	1.2051	23.2544	-21.3013	1.6479	0.9283	14.9249	-178.6487	40.9800	-38	-252	157 
37.771	0.1655	0.1460	0.7017	14.7095	-19.2871	31.0059	4.0594	12.4365	-178.8354	40.9800	-42	-253	157 
37.802	-0.2495	-0.1162	0.8237	-30.8228	55.6641	-24.1089	0.7745	14.7327	179.8682	40.9800	-42	-253	154 
38.052	-0.1470	0.0381	0.8774	19.1040	-32.5317	32.6538	0.7361	15.9521	-179.7968	40.9900	-35	-253	152 
38.052	-0.0981	-0.3091	0.4517	1.5869	-4.9438	-2.3804	1.6754	13.7714	-177.6050	41.0000	-39	-257	153 
38.130	-0.5581	0.1992	0.8179	12.8174	-8.1787	-11.1084	0.1154	15.6281	178.7970	41.0100	-33	-259	157 
38.224	-0.5762	0.0093	1.3530	-12.6953	2.2583	-54.9927	-0.8789	17.0453	176.2482	41.0000	-27	-256	156 
38.365	-0.2686	0.2261	0.8994	4.6387	-25.8789	52.3071	-1.8182	15.9521	176.1493	41.0100	-25	-251	154 
38.427	-0.2207	-0.1489	0.8179	-13.7329	55.0537	20.7520	-0.3955	15.9357	-178.4125	41.0100	-32	-254	149 
38.537	-0.1084	-0.0132	0.7202	-23.4985	-47.3022	2.1362	-2.0050	15.5457	-178.0334	41.0100	-32	-254	146 
38.599	-0.1538	0.4243	0.5610	-11.2915	7.0190	86.1206	-1.4832	14.3097	-174.4684	41.0300	-37	-252	145 
38.771	-0.6948	-0.1641	1.2119	19.7754	18.4326	0.1221	-0.5493	16.1444	-168.9917	41.0200	-47	-252	142 
38.833	-0.3018	-0.0776	1.4795	35.7056	-33.8135	51.0864	1.8073	18.1329	-169.2114	41.0200	-47	-251	147 
38.943	-0.0723	-0.1211	0.2817	-7.2632	1.0986	-51.8188	1.0547	16.9684	-171.1011	41.0400	-46	-254	145 
39.005	-0.4561	0.1040	1.2471	34.8511	-6.4697	32.7148	1.3568	19.9841	-174.4519	41.0200	-36	-259	149 
39.177	-0.0571	-0.2319	0.4521	4.1504	-27.5269	-22.4609	3.5376	16.2323	-173.7543	41.0200	-38	-268	153 
39.208	-0.4634	0.0132	0.5776	9.1553	-5.3101	-62.0117	0.5383	14.6887	-179.7253	41.0400	-34	-265	158 
39.349	-0.6094	-0.1475	1.3223	-13.1226	2.4414	-22.1558	-0.6317	17.9572	177.1436	41.0600	-19	-262	157 
39.412	-0.2969	0.2349	0.9712	1.2207	-11.5967	-1.9531	-1.6040	17.0288	174.2761	41.0500	-14	-258	158 
39.475	-0.0620	-0.1201	0.7285	2.3804	24.2920	7.0801	0.8295	16.3422	177.4677	41.0400	-14	-259	157 
39.678	-0.1089	0.1011	0.7422	-16.0522	-50.5371	-32.2876	-0.6537	15.0623	174.3420	41.0500	-11	-260	156 
39.787	-0.3164	0.3638	0.4268	-12.0850	4.3335	88.0737	0.4559	13.7439	177.2424	41.0500	-12	-258	152 
39.818	-0.8188	-0.3843	1.5142	24.5361	3.7231	-10.1929	0.6921	16.3861	179.9121	41.0700	-20	-257	152 
39.881	0.1445	0.2769	0.7749	18.5547	-30.8228	6.2256	4.3835	13.6560	179.0771	41.0500	-21	-262	156 
40.006	-0.2529	-0.0542	0.8447	-39.2456	42.7856	-24.1089	2.0874	15.2271	177.6599	41.0700	-20	-264	153 
40.084	-0.2021	-0.0181	0.8511	13.4888	-5.0049	36.0718	0.6317	17.2266	177.2644	41.0700	-9	-258	151 
40.303	-0.1631	-0.2510	0.3755	3.2959	-13.7939	10.6201	1.9006	16.2598	179.7858	41.0800	-13	-262	150 
40.396	-0.7046	0.3545	0.8843	-12.9395	54.8096	-26.1841	-0.7910	17.2101	175.3857	41.0900	-11	-260	149 
40.428	-0.6182	-0.0156	1.8096	-40.1001	-21.4233	-19.5313	-2.8894	19.3030	173.9520	41.1000	-4	-253	151 
40.490	-0.1357	-0.0166	0.2676	10.3149	-4.5166	68.7866	-2.3401	17.6715	177.0941	41.0900	-3	-247	143 
40.709	-0.4238	0.1113	1.2109	-7.5684	19.1650	-0.1221	-2.0050	21.5222	179.2255	41.1000	-8	-254	139 
40.818	-0.0303	0.2617	0.4229	-32.9590	-26.7944	26.7944	-3.1366	16.5564	-179.9011	41.1000	-11	-253	139 
40.818	-0.6318	-0.1274	0.7285	-2.5635	22.4609	63.4155	-1.8787	17.6440	-173.6499	41.1100	-20	-251	130 
40.865	-1.0298	0.0259	2.6060	66.8335	1.3428	31.6162	0.9119	19.2371	-171.9360	41.1100	-30	-249	131 
41.068	0.0420	0.1401	0.3540	-41.8091	-7.3853	-15.6860	3.9716	14.2657	-168.7061	41.1100	-42	-259	136 
41.084	-0.6123	-0.1660	0.8555	-29.9072	43.5181	108.3374	3.0103	21.5662	-163.8940	41.1200	-42	-257	130 
41.224	-0.0581	-0.3096	1.3433	-2.2583	-0.7324	18.0054	2.1533	21.9177	-159.1534	41.1300	-51	-258	119 
41.303	-0.2817	0.0859	0.6011	-21.3623	-9.0332	33.6304	3.3728	20.4895	-157.0715	41.1200	-55	-256	121 
41.428	-1.5396	0.0557	2.9683	-43.2129	58.6548	9.5825	1.8182	21.9342	-154.2590	41.1400	-64	-258	114 
41.506	-0.3813	0.2446	0.9775	-11.7188	-33.0811	72.0825	0.0330	20.3741	-150.3534	41.1300	-76	-245	105 
41.678	-0.3247	-0.1436	0.7720	-5.0659	24.5361	58.7158	2.1423	22.0386	-142.8058	41.1300	-91	-241	96 
41.709	-0.3574	0.3506	0.8037	-30.8838	26.7944	65.0635	3.5760	24.6368	-138.9880	41.1300	-99	-238	89 
41.834	-0.3364	0.2056	0.9536	-45.2881	-4.8828	54.9316	3.0872	24.9829	-133.3850	41.1400	-108	-229	82 
41.896	-0.3906	0.0659	1.2998	-30.2734	9.0332	-18.0664	0.4724	24.8950	-132.5665	41.1400	-113	-215	76 
42.021	-0.6240	0.5049	1.2197	-21.5454	-17.0288	44.8608	-1.3678	21.6266	-133.2422	41.1500	-124	-205	70 
42.084	-0.8071	-0.0342	0.5176	-36.3770	-8.6670	160.2173	1.8073	21.9617	-123.8379	41.1500	-143	-197	65 
42.209	-0.5962	0.1538	0.9536	-78.7964	31.3721	98.7549	0.8899	22.3737	-112.5439	41.1500	-156	-169	58 
42.319	-0.4819	-0.0938	0.6523	-79.5288	-4.1504	124.9390	-1.9171	22.7747	-101.3324	41.1600	-163	-130	60 
42.444	-0.5425	-0.0737	0.8022	-78.3691	-9.2773	137.9395	-3.6365	23.5272	-89.2255	41.1700	-153	-86	63 
42.522	-0.2148	-0.2422	0.8003	-50.9033	-3.8452	84.2285	-6.4929	23.7305	-78.8654	41.1800	-140	-50	75 
42.663	-0.2188	0.0161	0.8755	-28.7476	-22.0337	72.9370	-6.9049	23.3954	-72.4713	41.1700	-123	-27	84 
42.804	-0.2700	-0.1133	1.1162	-10.9253	-16.9067	60.7910	-5.9766	22.4890	-66.7090	41.1800	-108	-15	93 
42.882	-0.9722	0.4067	0.7935	-18.0664	2.7466	24.1089	-6.1139	23.9667	-63.9624	41.1900	-96	-4	98 
42.882	-0.3887	-0.6338	0.8628	-29.2358	36.9873	94.0552	-2.6202	23.1482	-56.8158	41.1800	-79	0	103 
43.038	-0.3779	0.3682	0.6665	16.9067	-30.0903	18.1274	-1.8457	23.4283	-54.3988	41.1900	-60	0	106 
43.132	-0.5063	0.0044	1.0869	-7.0801	-2.6855	18.3105	-0.9119	23.2526	-55.7172	41.1700	-50	3	102 
43.257	0.0122	0.0894	0.3682	-6.6528	-58.5327	7.5684	-0.6207	18.2483	-56.2610	41.1700	-49	0	103 
43.429	-0.7383	-0.1851	0.8091	-20.6909	3.9063	10.2539	-2.3895	14.6667	-57.0630	41.1800	-58	0	113 
43.491	-0.7778	-0.0791	1.9751	20.2026	-11.1084	22.8882	-1.2415	14.6393	-53.7286	41.1800	-53	2	112 
43.522	-0.1411	0.0981	0.4805	-19.8364	33.1421	-27.2827	0.0769	12.2992	-54.1132	41.1800	-54	0	107 
43.616	-0.4009	0.0234	0.8623	-5.3711	15.8691	29.1138	-1.6919	17.0618	-57.7167	41.1900	-49	0	111 
43.726	-0.1401	-0.1582	0.3950	-0.6714	-8.3618	31.9214	-0.6482	15.5182	-52.6245	41.1700	-42	-4	112 
43.866	-0.5234	0.0146	0.8696	-14.4653	36.0107	-29.9683	-2.2083	15.4742	-49.2737	41.1800	-34	-3	114 
43.882	-0.6855	0.1577	1.6797	-4.2725	-48.8892	-23.1934	-4.4055	16.8146	-46.8622	41.1800	-41	-5	117 
44.022	-0.2134	0.2173	0.5796	12.5122	-9.2163	49.4995	-3.2904	13.6890	-51.1633	41.2000	-50	-3	122 
44.116	-0.2397	-0.1694	0.6699	-1.4648	-6.5918	-27.7100	-3.3893	14.5349	-49.8615	41.2100	-41	-5	119 
44.272	-0.2183	0.5356	0.8584	-6.4697	7.2632	-5.0659	-3.6310	10.5908	-52.1741	41.2100	-50	-6	123 
44.335	-0.7266	-0.3916	1.5439	26.9165	8.7280	19.3481	-3.3344	10.1019	-50.1801	41.2000	-54	-4	118 
44.460	0.0288	0.1753	1.0376	20.1416	-19.3481	35.6445	-0.0220	10.3271	-49.9933	41.2100	-49	-9	112 
44.554	-0.2241	-0.2622	0.7285	-29.7852	34.1187	-23.8647	-2.5983	11.9916	-53.6792	41.1800	-45	-14	115 
44.679	-0.2510	0.0718	0.9277	25.1465	1.0376	17.0898	-3.1805	13.3978	-55.7831	41.1900	-44	-9	120 
44.741	-0.0327	-0.2720	0.3545	14.4653	-28.3813	1.3428	-0.3296	10.9808	-55.3986	41.2000	-41	-16	117 
44.866	-1.1094	0.6064	1.7827	-8.3008	35.8887	-23.0713	-1.0162	11.0028	-59.8425	41.2200	-52	-18	117 
44.898	-0.3057	0.2373	1.4624	-12.7563	-29.2358	-28.9307	-2.5653	10.0360	-67.5879	41.2100	-57	-11	119 
45.038	-0.1348	0.1069	0.5015	23.3765	-16.6016	59.4482	-0.8185	8.4265	-69.2249	41.2100	-61	-10	120 
45.163	-0.3872	-0.0571	0.9175	-16.1743	-12.9395	-45.5322	-1.0767	10.5579	-71.6803	41.2100	-53	-14	115 
45.241	-0.1177	0.6792	0.3569	-7.8125	-18.0664	23.4985	-0.8295	6.3501	-76.7944	41.2100	-60	-10	121 
45.351	-0.7554	-0.5537	1.5889	26.8555	-7.2021	35.8887	-0.1208	6.0535	-72.3120	41.2200	-53	-10	122 
45.491	-0.5498	0.1338	1.4927	26.5503	-46.9360	38.5742	2.8070	6.6193	-74.7565	41.2200	-51	-12	123 
45.663	-0.1650	-0.2339	0.8296	-47.9126	24.8413	-30.7007	0.3625	6.4819	-75.6903	41.2300	-45	-15	122 
45.726	-0.3667	0.0688	0.9243	1.2207	6.0425	23.8037	-1.8896	9.2120	-77.5745	41.2300	-44	-6	123 
45.726	0.0293	-0.3096	0.4932	-3.7842	-28.5645	3.6621	-1.5601	6.4435	-75.8936	41.2400	-40	-9	127 
45.882	-0.5215	0.3408	0.8174	5.3711	41.7480	-19.1650	-2.0654	5.4382	-79.7443	41.2500	-47	-8	127 
45.976	-0.4839	0.0469	1.1426	12.5122	-8.3618	-18.1885	-0.3680	8.4430	-85.4626	41.2500	-44	-6	126 
46.054	-0.2485	0.3857	1.0664	2.7466	-37.7808	53.1006	-0.1758	7.9156	-88.7036	41.2500	-48	-4	133 
46.101	-0.1436	-0.0610	0.6938	-2.3193	48.4009	20.2026	0.1648	6.6797	-83.8531	41.2500	-38	-8	129 
46.288	-0.1704	0.1689	0.4165	-3.8452	-33.2031	-23.8037	0.7361	7.0367	-90.6317	41.2600	-29	-12	128 
46.335	-0.5059	-0.0269	1.2817	26.3062	46.0815	16.9678	3.6255	5.5811	-92.7576	41.2800	-27	-8	127 
46.382	-0.7803	0.1240	1.8252	34.3018	-20.5078	2.5024	5.6964	7.0313	-91.4337	41.2500	-18	-12	126 
46.523	-0.1548	-0.0596	0.7007	-37.4756	1.5259	-5.1880	5.4822	6.5753	-93.6255	41.2500	-17	-17	124 
46.585	-0.3091	-0.0127	0.8013	-5.1270	21.6675	2.1973	2.3895	8.7396	-92.5488	41.2500	-13	-13	131 
46.757	-0.1875	-0.1685	0.5049	-5.1270	-30.7617	26.1230	3.6365	7.5861	-93.7958	41.2600	-4	-12	134 
46.773	-0.3965	0.1235	0.6748	-2.6855	20.4468	-45.2271	1.6974	4.3726	-94.1803	41.2500	-11	-13	133 
46.929	-0.6636	-0.0361	1.5645	7.9956	-44.7998	-42.8467	1.7194	6.1963	-104.0625	41.2600	-21	-8	136 
47.117	-0.2832	0.1987	0.9951	0.0000	15.5640	0.9766	3.2355	4.7076	-110.4895	41.2600	-39	-4	139 
47.164	-0.1836	-0.0635	0.8335	1.0376	13.7939	-20.3247	4.2847	5.4218	-110.4730	41.2700	-38	-10	132 
47.195	-0.1167	0.3589	0.7051	-5.7373	-15.0757	-54.4434	4.0594	4.5758	-119.5203	41.2700	-47	-10	130 
47.382	-0.6987	-0.1885	1.1543	-1.8311	-2.8687	26.2451	6.5039	3.5211	-118.9929	41.2800	-53	-8	132 
47.476	-0.5142	-0.0918	1.4761	17.5171	-9.3384	-33.3862	6.5918	2.5378	-112.5055	41.2800	-50	-7	129 
47.507	-0.2461	0.1650	0.7842	-21.0571	36.0107	7.3242	7.6740	4.0485	-114.4666	41.2800	-50	-8	122 
47.570	-0.3638	-0.1846	0.7954	-18.9209	42.6636	13.6108	5.7129	9.2999	-117.2131	41.2800	-41	-11	129 
47.726	-0.2148	0.0249	0.8535	25.0854	-30.2734	-2.0752	5.8118	9.1626	-112.5934	41.3000	-31	-8	133 
47.820	0.0039	-0.2271	0.3433	3.6621	-14.4653	-5.9204	7.9321	6.4105	-112.4176	41.2800	-35	-12	127 
47.945	-0.8647	0.4370	1.6460	-2.0142	32.5317	-43.8843	6.9104	7.1356	-119.6796	41.3000	-46	-13	125 
47.976	-0.5479	0.0103	1.7974	-20.1416	-12.4512	-45.8984	6.0425	8.2343	-124.3488	41.3100	-57	-6	131 
48.101	-0.0977	0.0156	0.4634	16.1743	-19.8364	38.9404	5.8777	6.1688	-125.7550	41.3100	-66	-8	129 
48.211	-0.3911	0.0029	1.0537	2.9907	-9.9487	-32.9590	5.9546	7.6740	-123.7775	41.3000	-65	-9	127 
48.367	-0.2534	0.5957	0.4541	-1.8921	-7.3242	17.0288	6.5918	5.3284	-127.5732	41.3000	-75	-11	128 
48.508	-0.8223	-1.0566	1.9458	14.7095	33.8745	19.2871	7.3663	5.6909	-121.2506	41.3100	-72	-9	125 
48.586	-0.6479	0.3159	1.8784	21.0571	-23.0713	36.9263	8.9923	6.9049	-121.7725	41.3100	-73	-7	122 
48.617	-0.3320	-0.0518	0.6392	-46.1426	16.7847	17.7002	7.3828	6.8225	-116.3177	41.3300	-63	-5	117 
48.742	-0.3306	-0.1416	1.0029	10.1318	-15.0757	10.6201	4.6088	8.7726	-111.2256	41.3100	-53	-8	128 
48.789	-0.0830	-0.0757	0.3613	3.7231	-24.9023	38.0249	6.2018	5.5206	-108.0396	41.3300	-55	-9	123 
48.914	-0.8086	0.4966	1.2153	13.1226	40.1611	-51.9409	4.2133	3.8617	-109.1052	41.3300	-56	-9	118 
49.023	-0.8140	0.1313	1.6621	-3.7231	-25.2686	-1.8921	2.8345	6.6907	-114.8071	41.3300	-66	-8	125 
49.101	-0.2422	-0.0576	0.6953	11.7188	6.9580	38.3911	2.2083	6.6357	-113.1317	41.3200	-67	-6	129 
49.195	-0.2256	0.2441	0.8784	-9.0332	16.4795	-1.0376	3.4552	7.4872	-108.8470	41.3500	-59	-4	124 
49.351	-0.0034	0.0420	0.4106	-17.0898	-10.8032	-13.4277	1.2854	5.4657	-110.6873	41.3100	-61	-3	128 
49.429	-0.3745	-0.2290	0.7935	-6.1035	27.4048	36.1328	2.7631	5.6909	-107.8638	41.3400	-60	0	131 
49.554	-0.8276	-0.1245	2.1753	15.0146	35.1563	-16.0522	2.3785	7.6300	-100.8600	41.3100	-51	2	129 
49.586	-0.1650	-0.0229	0.6895	-22.5830	-11.0474	1.2817	3.2410	6.6962	-98.5583	41.3300	-48	-2	121 
49.679	-0.4614	0.0610	0.9087	-11.6577	73.7915	8.3618	0.7965	10.6293	-101.8652	41.3300	-49	0	129 
49.820	-0.1040	-0.2148	0.9136	-1.2207	-32.8979	17.8223	1.7358	11.0413	-95.7129	41.3400	-38	1	128 
49.945	-0.0513	-0.2070	0.1743	-11.3525	-21.4233	-7.8735	-0.2362	7.3389	-90.1978	41.3300	-37	3	124 
49.976	-0.7593	0.1045	1.6123	-30.7617	-5.6152	13.7939	-3.0157	9.5087	-92.4829	41.3200	-43	6	131 
50.164	-0.4639	0.2876	1.4365	-17.3340	8.9722	25.6958	-5.2679	8.1628	-91.6534	41.3300	-48	11	140 
50.242	-0.0322	-0.1113	0.5000	16.7236	33.5693	16.1743	-4.2517	7.6080	-85.4462	41.3200	-42	12	141 
50.368	-0.0708	0.2437	0.7622	-18.3716	1.9531	-36.7432	-3.6365	9.0967	-90.2417	41.3400	-38	8	136 
50.430	-0.3438	0.1987	1.0405	-8.6060	34.5459	-43.2739	-5.7788	10.5359	-91.9666	41.3400	-43	10	143 
50.586	-1.1733	0.1968	1.4697	109.0698	-55.1758	111.8774	-2.0325	9.6515	-94.4659	41.3400	-56	8	145 
50.649	-0.0220	0.3618	0.0078	-32.7759	-36.5601	69.7632	2.0380	5.3284	-83.8037	41.3200	-44	0	130 
50.758	-0.6006	-0.8105	1.3599	-71.3501	-44.8608	148.9868	-2.0490	9.8547	-73.6414	41.3200	-11	0	152 
50.821	-0.0889	0.1670	0.6631	-35.0952	39.8560	39.1846	-6.4545	6.2512	-64.7040	41.3300	21	0	168 
50.852	-0.1675	0.0200	1.0205	-21.3623	-44.1895	67.4438	-8.4869	8.4814	-52.4817	41.3200	50	-8	181 
51.024	-0.9429	0.0811	1.4048	-6.3477	6.8359	23.6816	-9.5691	8.3112	-41.4185	41.3300	69	-18	182 
51.196	-0.5161	0.4302	1.1421	-8.6060	-25.7568	23.8037	-14.5569	8.8989	-35.1617	41.3200	78	-25	192 
51.383	-0.2124	-0.3374	0.7075	20.1416	-17.4561	-10.0708	-13.7494	9.5691	-25.5542	41.3000	91	-30	191 
51.430	-0.1987	0.1807	0.7949	-1.5869	14.7705	-11.0474	-12.0465	11.0358	-21.1487	41.3100	93	-31	186 
51.430	-0.2813	0.0635	1.2813	7.0190	14.0381	-28.7476	-12.8815	13.0792	-17.6770	41.3300	92	-31	190 
51.649	-0.5977	0.9590	1.2212	16.9678	-4.4556	-17.5171	-12.6013	12.8540	-15.2216	41.3100	82	-23	188 
51.711	-0.5620	-0.4678	0.6953	4.7607	-1.0986	63.4155	-10.5798	15.4742	-4.5264	41.3200	87	-31	182 
51.868	-0.4248	0.6680	0.5444	-34.7900	15.5640	22.2168	-10.8105	17.1991	3.6804	41.3100	96	-41	178 
51.868	-0.2549	-0.2651	0.9136	-44.9829	-9.8267	61.8286	-13.5352	20.2643	14.6503	41.3300	105	-52	192 
51.946	-0.2134	0.0371	0.7720	-29.4189	18.9819	55.4810	-13.9526	21.9617	25.4224	41.3000	121	-57	197 
51.993	-0.1543	-0.1304	1.0532	-10.2539	-13.7329	31.4331	-13.3429	23.6920	34.2499	41.3300	130	-69	205 
52.055	-1.0586	-0.0352	1.5854	-1.1597	4.1504	-10.8032	-11.9531	24.7302	41.0229	41.3300	134	-79	209 
52.274	-0.2188	0.2344	0.6914	-4.9438	-26.5503	21.3623	-14.3317	23.7964	44.0002	41.3400	132	-79	210 
52.368	-0.3398	-0.4150	0.8530	22.3999	-11.1084	-29.4800	-12.9199	23.5822	49.1748	41.3200	131	-83	205 
52.399	-0.1924	0.2705	0.8345	9.8267	15.4419	-29.9072	-10.4315	22.6593	48.5596	41.3200	126	-79	200 
52.586	-0.1543	-0.0352	1.2085	8.3008	14.2822	-15.3198	-8.6682	24.1315	51.6852	41.3300	128	-75	197 
52.649	-0.9995	0.8262	1.4302	20.7520	-2.9297	5.0659	-8.9813	23.1647	51.1523	41.3300	118	-66	198 
52.680	-0.4092	-0.4761	0.6523	12.3291	-16.6016	40.0391	-4.9548	22.9724	59.7327	41.3100	115	-74	196 
52.852	-0.4927	0.5869	0.6880	-45.8374	3.2959	52.1851	-3.6639	24.3402	66.2366	41.3300	125	-81	194