15+15
StartTime: 2017-07-11 15:35:03.113
Time(s)	ax(g)	ay(g)	az(g)	wx(deg/s)	wy(deg/s)	wz(deg/s)	AngleX(deg)	AngleY(deg)	AngleZ(deg)	T(°)	hx	hy	hz	Pressure(Pa)	Altitude(m) 
18.269	-1.2520	-0.0605	1.8438	-0.3052	-0.3662	0.0000	-2.1918	33.9148	143.4265	43.8000	44	-257	259	100838	0.41 
18.440	-1.2563	-0.0586	1.8403	-0.3662	0.1831	0.3052	-2.1863	33.9313	143.4265	43.8000	41	-256	262	100838	0.41 
18.503	-1.2603	-0.0635	1.8447	-0.3052	0.1221	0.1221	-2.1753	33.9532	143.4485	43.8200	46	-256	260	100838	0.41 
18.675	-1.2490	-0.0674	1.8325	-0.7324	-0.1221	0.6104	-2.1973	33.9313	143.4045	43.8100	45	-258	261	100838	0.41 
18.800	-1.2539	-0.0591	1.8418	-0.7935	-0.0610	0.1221	-2.2028	33.9917	143.4155	43.7900	43	-258	260	100837	0.41 
18.878	-1.2568	-0.0967	1.8457	-2.5024	-0.3052	-5.1270	-2.3840	33.9972	143.2837	43.7900	45	-255	259	100837	0.41 
18.925	-1.2144	-0.0815	1.8633	-2.4414	3.9063	-5.0659	-3.3069	34.2114	142.1082	43.7900	47	-256	260	100837	0.41 
19.066	-1.1797	-0.1299	1.8047	-3.7842	0.7324	12.1460	-3.0212	34.1675	143.0530	43.7900	43	-255	258	100838	0.41 
19.128	-1.2944	-0.0679	1.7061	-0.7324	11.4136	10.2539	-2.6477	35.0574	143.8440	43.7900	41	-256	260	100837	0.41 
19.253	-1.2813	0.0923	1.8384	-15.1978	54.0161	36.3770	-1.2030	37.9852	147.2388	43.7900	40	-259	262	100837	0.41 
19.456	-1.0918	-0.0889	1.8125	12.8784	-20.9351	-11.1694	0.2032	38.7323	149.6228	43.8000	37	-262	263	100838	0.41 
19.503	-1.2461	-0.0107	1.8628	3.9063	35.7666	4.3335	1.3953	38.7488	149.7931	43.7900	37	-263	267	100838	0.41 
19.659	-1.1665	0.0386	1.7808	6.2866	-10.0708	3.3569	2.1478	38.8202	149.8096	43.8000	38	-266	266	100838	0.41 
19.707	-1.2710	-0.0254	1.8896	6.4087	22.2168	-19.6533	1.9775	39.0399	148.7054	43.7900	36	-268	268	100838	0.41 
19.863	-1.9961	-0.0649	2.8525	-15.1978	33.1421	8.7891	0.9338	42.8192	147.2168	43.7900	40	-270	277	100837	0.41 
19.910	-1.5527	-0.0894	1.2236	-4.0283	0.1831	-41.4429	-4.9658	40.7043	140.6085	43.7700	46	-265	269	100838	0.41 
20.066	-1.4263	-0.1470	1.9009	-10.1929	-17.2729	-11.8408	-6.4929	40.7373	139.8010	43.7600	51	-259	263	100838	0.41 
20.113	-1.2393	-0.0220	1.5103	-6.8970	-3.4180	-0.4272	-7.5366	38.5675	138.2739	43.7500	52	-255	258	100837	0.41 
20.300	-1.2974	-0.2832	1.6968	0.4883	-3.1128	3.1128	-7.0422	38.3313	139.4989	43.7400	47	-252	253	100837	0.41 
20.347	-1.4014	-0.2246	2.1563	7.1411	-7.1411	-5.7373	-6.4929	37.5513	139.9548	43.7400	43	-257	255	100837	0.41 
20.472	-1.8472	0.1919	2.3789	6.5308	-21.6675	42.8467	-6.0150	38.3038	139.5978	43.7300	40	-257	260	100837	0.41 
20.535	-1.1899	-0.0991	1.3618	2.3804	15.9302	49.6216	0.3131	36.4142	148.7329	43.7400	24	-259	251	100836	0.41 
20.691	-1.3296	-0.0605	1.6196	5.5542	-38.0859	20.8740	1.7358	36.7767	150.2985	43.7300	12	-261	254	100836	0.41 
20.738	-1.2871	0.0527	1.6880	3.1738	35.5835	2.9297	2.3730	37.4799	151.4630	43.7200	3	-265	255	100836	0.41 
20.894	-1.2510	0.0703	1.8262	-0.6714	-17.5781	35.7056	3.5101	38.0237	153.4076	43.7300	2	-267	258	100835	0.41 
20.957	-1.5669	0.0337	1.9941	-4.2725	1.1597	-12.4512	5.1526	38.0841	155.4950	43.7300	-4	-269	257	100835	0.41 
21.082	-1.3652	-0.6265	1.4761	-16.1743	-66.2231	-49.7437	2.9443	37.5293	154.0338	43.7200	-6	-266	257	100835	0.41 
21.160	-1.2559	0.4272	1.9995	6.3477	43.5791	-8.4839	-1.5710	38.9301	145.8820	43.7100	8	-262	257	100835	0.41 
21.285	-1.1865	-0.2681	1.3232	-8.3618	-29.2358	0.4272	-2.8345	36.9360	147.2223	43.7000	12	-258	256	100835	0.41 
21.488	-1.3335	-0.1851	1.7578	-16.0522	4.2725	-15.7471	-5.1526	37.5293	145.4535	43.7000	9	-255	252	100834	0.41 
21.550	-1.1616	-0.1709	1.8364	9.3994	4.5166	-20.3857	-6.3556	37.1997	143.8879	43.7000	13	-251	247	100834	0.41 
21.660	-1.6787	-0.4194	2.3584	3.8452	16.7847	-14.8926	-6.9928	39.1058	141.5204	43.7000	18	-250	248	100833	0.41 
21.707	-1.5015	0.0581	1.2280	10.2539	-20.8740	39.8560	-4.7516	38.0786	143.2617	43.7100	20	-251	253	100834	0.41 
21.879	-1.3696	-0.1782	2.3032	25.4517	11.9019	-5.9814	-2.0929	40.3802	146.1841	43.6900	15	-255	253	100833	0.41 
21.925	-1.1953	-0.0415	1.1475	3.1738	-8.6060	-0.7935	-1.2799	37.7985	145.3052	43.7100	10	-257	254	100833	0.41 
22.097	-1.4521	0.1138	2.0708	3.9673	17.3950	-12.8784	-0.8130	40.3418	144.2834	43.6900	15	-256	260	100832	0.41 
22.175	-1.4814	-0.0088	2.0981	-5.4321	-7.4463	31.7383	0.2252	39.7266	145.5743	43.6900	16	-259	265	100832	0.41 
22.254	-1.9341	-0.0674	2.7744	-5.0049	12.4512	12.3291	1.1975	40.5341	147.5793	43.7000	11	-262	262	100832	0.41 
22.347	-1.3408	-0.0771	1.1299	5.7983	14.0381	-37.9639	-2.1204	37.1722	143.6188	43.6700	8	-257	258	100832	0.41 
22.488	-1.3789	-0.1665	1.8276	-17.5171	-22.4609	7.0801	-2.8839	38.5510	143.5089	43.6800	18	-255	256	100831	0.41 
22.582	-1.2266	-0.0288	1.5557	-13.9771	18.3716	-9.4604	-4.5264	38.0072	142.2290	43.6600	17	-251	254	100831	0.41 
22.691	-1.3750	-0.2905	2.0215	-9.0332	2.6245	-11.9019	-6.2128	39.5068	141.6797	43.6800	21	-249	254	100831	0.41 
22.785	-1.3765	-0.2495	1.8140	16.1743	4.2725	-15.2588	-7.6080	38.7762	138.7024	43.6900	27	-248	254	100831	0.41 
22.941	-1.5645	0.1318	1.2524	17.8223	-45.4102	40.5884	-5.2295	38.4576	140.2789	43.6600	25	-248	260	100830	0.41 
23.098	-1.3745	-0.1680	2.0127	27.0996	17.3340	-26.8555	-1.9171	39.6552	143.1903	43.6700	21	-253	256	100830	0.41 
23.160	-1.2388	0.0034	1.3379	-0.0610	-6.7749	11.0474	-0.7800	37.6117	142.8552	43.6700	21	-257	261	100830	0.41 
23.332	-1.3057	0.0308	1.7285	-0.6104	3.4180	-2.1362	-0.1703	38.9685	143.2947	43.6600	21	-258	260	100830	0.41 
23.379	-1.3979	0.0767	2.0356	3.6621	13.6719	31.4941	1.0052	39.5728	145.2997	43.6700	20	-260	266	100829	0.41 
23.473	-1.6904	0.1523	1.9414	1.4648	10.6201	12.5732	1.9171	38.6005	147.1399	43.6800	15	-261	266	100829	0.41 
23.535	-1.4761	-0.1372	1.3667	-8.9111	-47.0581	-41.5649	0.2472	38.0347	145.5414	43.6500	13	-262	264	100829	0.41 
23.723	-1.3037	-0.1455	1.8379	-16.9067	3.9673	-22.1558	-0.7690	38.0841	145.6128	43.6700	16	-259	257	100828	0.41 
23.785	-1.1943	-0.0630	1.2861	-5.3101	-5.2490	-4.4556	-2.9059	36.8701	143.7671	43.6500	11	-256	251	100828	0.41 
23.926	-1.3950	-0.1792	1.8652	-8.5449	25.9399	-20.3247	-5.3668	38.9960	141.7456	43.6600	17	-255	254	100828	0.41 
23.973	-1.3799	-0.0381	1.9424	4.3945	1.7090	-12.6953	-7.2894	39.6167	139.1364	43.6700	23	-248	255	100828	0.41 
24.113	-1.7153	0.0718	2.2905	24.2920	-26.0010	-2.6855	-6.7621	41.6162	138.7408	43.6700	31	-248	255	100827	0.41 
24.176	-1.4985	-0.1250	1.5137	-0.9155	20.5688	50.4761	-2.7740	40.5505	143.3661	43.6600	27	-250	253	100827	0.41 
24.316	-1.3901	0.0410	1.5669	3.7842	-31.7383	18.7378	-0.1263	40.0397	145.9094	43.6400	19	-254	257	100827	0.42 
24.395	-1.3535	-0.0557	1.5898	0.4883	16.7847	2.1973	1.2469	39.1663	148.1012	43.6400	12	-257	255	100826	0.42 
24.566	-1.2754	0.2212	1.7764	-7.7515	-14.4043	9.6436	1.0986	39.1278	148.0353	43.6500	9	-258	257	100827	0.42 
24.741	-1.4956	-0.1733	2.1060	-3.0518	4.2725	-7.8125	2.2797	38.6389	151.2598	43.6700	4	-259	254	100826	0.42 
24.928	-1.6543	-0.2192	1.9287	-16.9067	-47.7295	-1.4038	1.4337	39.1498	150.4358	43.6600	8	-259	253	100825	0.42 
24.960	-1.3813	-0.0054	1.5098	-4.1504	24.3530	-19.8975	-1.5875	37.7545	145.9204	43.6600	11	-255	248	100826	0.42 
24.991	-1.2729	-0.0684	1.4536	-6.0425	-38.0859	-11.8408	-4.0869	36.9965	143.8824	43.6300	15	-249	245	100825	0.42 
25.147	-1.2500	-0.1050	1.6592	-5.4932	16.4185	-15.4419	-5.7129	36.8372	142.2180	43.6400	16	-245	240	100825	0.42 
25.178	-1.3452	-0.2510	1.9951	-5.6763	5.5542	-11.1694	-7.1246	37.7106	140.8832	43.6500	22	-243	240	100825	0.42 
25.319	-1.3877	-0.3638	1.8940	13.1226	18.7988	-15.3198	-7.7234	37.4744	138.6365	43.6500	31	-241	242	100825	0.42 
25.350	-1.4336	0.0181	1.3096	15.1367	-43.9453	33.0811	-4.6527	36.9415	140.4163	43.6300	31	-245	245	100824	0.42 
25.538	-1.3306	-0.1084	1.9214	22.3999	23.2544	-8.2397	-1.2305	37.7710	143.8495	43.6300	22	-252	245	100824	0.42 
25.585	-1.2622	0.0439	1.3306	0.0000	-10.8643	20.0806	-0.7910	36.4636	143.4155	43.6300	22	-252	245	100823	0.42 
25.710	-1.3867	0.0044	1.8447	-0.9155	12.5122	-8.7280	-0.0055	38.4467	144.4922	43.6300	23	-253	248	100823	0.42 
25.804	-1.3838	0.2563	2.2075	6.7139	9.0332	26.0620	0.9503	39.2102	145.3821	43.6400	21	-254	252	100823	0.42 
25.928	-1.5269	-0.0703	1.9971	-6.1035	12.7563	0.7935	3.4442	37.8589	149.6228	43.6400	18	-257	256	100823	0.42 
25.991	-1.4722	-0.2676	1.3359	-19.7144	-36.3770	-47.6685	0.1318	37.1503	146.4972	43.6400	18	-253	249	100822	0.42 
26.147	-1.3193	0.0366	1.9395	-16.1743	21.6675	-20.9961	-3.5541	37.9303	142.6794	43.6300	26	-250	246	100822	0.42 
26.225	-1.1475	-0.1514	1.2974	-5.7983	-10.0098	-8.5449	-6.2677	35.9253	141.1084	43.6400	27	-244	239	100821	0.42 
26.335	-1.4009	-0.1323	1.9443	-13.7329	16.1743	-9.5215	-8.1079	37.8534	139.8120	43.6300	32	-238	239	100821	0.42 
26.569	-1.2520	-0.2905	1.9844	4.2725	11.2305	-1.8921	-8.0859	37.9138	140.4053	43.6100	33	-238	236	100821	0.42 
26.616	-1.7319	-0.2700	2.5425	10.6201	26.6113	6.1646	-7.7399	38.8531	139.7351	43.6200	39	-237	237	100820	0.42 
26.647	-1.4580	-0.1289	1.0640	5.9204	-26.6724	54.5044	-3.5870	36.2494	143.7946	43.6100	35	-244	239	100820	0.42 
26.757	-1.4512	-0.0254	1.9443	15.3809	-20.0806	-1.0986	0.0055	38.4137	146.3818	43.6200	29	-251	246	100820	0.42 
26.960	-1.2197	0.0337	1.3291	17.8833	15.2588	3.6621	1.9336	36.8042	147.3157	43.6000	25	-257	247	100820	0.42 
26.991	-1.2866	0.1831	1.8857	9.5215	0.6714	4.5776	3.3453	38.2159	147.4420	43.6100	24	-260	250	100819	0.42 
27.163	-1.2754	-0.0103	2.0942	0.4883	0.3662	14.8315	4.9329	37.9028	149.7986	43.6100	26	-263	254	100819	0.42 
27.210	-1.8071	0.2158	2.4058	2.4414	20.6909	5.3101	4.6582	38.0731	149.8920	43.6200	24	-268	257	100819	0.42 
27.382	-1.3276	-0.3296	1.3291	-9.7046	-12.8174	-39.4897	0.5273	35.8264	146.0632	43.6000	24	-267	251	100819	0.42 
27.429	-1.3145	0.0142	1.7212	-15.8691	-24.0479	-13.7939	-2.6971	35.8978	143.0310	43.5900	28	-263	247	100818	0.42 
27.554	-1.2612	-0.1284	1.5474	-5.7373	20.9961	-25.6348	-5.4822	35.6726	140.7458	43.5800	31	-257	237	100817	0.42 
27.616	-1.2764	-0.1846	1.7886	-7.3242	20.1416	-21.9727	-8.1079	37.1997	137.8345	43.6000	44	-252	237	100817	0.42 
27.772	-1.4077	-0.2007	2.1636	5.3101	-2.8076	-7.4463	-9.4318	38.3807	135.8569	43.5900	55	-251	238	100817	0.42 
27.835	-1.6934	0.2783	1.9395	18.6157	-32.2266	15.0757	-7.8662	38.4576	135.9943	43.5900	60	-254	241	100817	0.42 
28.007	-1.2388	-0.2378	1.5557	6.9580	23.3765	24.8413	-2.4829	38.2050	142.2729	43.5700	48	-262	239	100816	0.42 
28.069	-1.3325	-0.0342	1.4653	17.7002	-16.4185	2.5635	-0.9888	38.2434	141.8500	43.5900	47	-267	245	100816	0.42 
28.210	-1.3867	0.0044	1.7861	11.4746	24.4751	0.6104	0.7361	39.6771	142.8882	43.5700	43	-269	245	100816	0.42 
28.272	-1.3052	0.1196	1.6890	4.1504	12.6343	-11.7188	0.9613	40.8582	142.1082	43.6000	46	-272	252	100816	0.42 
28.382	-1.3896	0.0576	2.2002	1.2817	-5.6152	11.4136	1.7578	41.8304	142.7728	43.5900	49	-273	259	100815	0.42 
28.475	-1.8403	-0.3350	2.5938	-6.1646	-12.6953	-37.2925	1.0162	42.9510	141.5149	43.5700	50	-270	262	100815	0.42 
28.616	-1.4990	-0.0327	1.2466	1.4648	8.1177	-25.0244	-2.9333	39.8474	135.9778	43.5700	64	-263	258	100815	0.43 
28.679	-1.3804	-0.0850	1.7197	-9.0942	-29.5410	-22.3999	-5.7404	39.4958	133.0719	43.5700	67	-254	253	100815	0.43 
28.835	-1.2446	-0.2749	1.5498	-0.9766	14.4043	-30.1514	-8.0475	37.7875	130.1550	43.5600	72	-248	248	100814	0.43 
28.992	-1.2271	-0.1187	1.7671	14.5264	-10.0098	-32.3486	-9.6680	37.6062	126.3867	43.5600	80	-243	248	100814	0.43 
29.038	-1.3384	-0.0889	1.8823	20.8740	16.8457	-31.8604	-10.1898	37.6117	122.6459	43.5800	88	-236	253	100814	0.43 
29.179	-1.3599	-0.1978	1.8149	28.8696	1.1597	-4.4556	-7.6685	37.9578	122.4921	43.5700	97	-232	261	100813	0.43 
29.210	-1.7217	0.1011	1.8389	27.8931	-36.1938	-61.4014	-9.6185	38.2434	116.1584	43.5800	106	-222	270	100813	0.43 
29.367	-1.2510	-0.4282	1.3916	20.5078	13.5498	-39.2456	-9.3329	34.8212	114.4830	43.5700	108	-212	264	100813	0.43 
29.429	-1.3306	-0.0063	1.4077	30.7617	-39.3677	-57.4341	-10.2448	33.1897	107.0618	43.6100	116	-203	267	100813	0.43 
29.585	-1.5005	0.0547	2.1353	34.6069	29.9683	-126.6479	-13.6395	32.9974	95.6415	43.5800	125	-184	267	100812	0.43 
29.648	-1.1357	0.0029	1.6445	14.7705	5.3711	-85.3882	-16.3037	30.9485	86.8744	43.5800	138	-158	269	100812	0.43 
29.773	-1.3857	0.1001	2.0615	22.7661	4.6997	-48.5229	-18.2098	30.2893	80.1837	43.6000	142	-135	276	100812	0.43 
29.851	-1.4419	-0.4990	1.7368	26.6724	11.3525	-57.2510	-18.9075	28.3997	75.1740	43.5900	140	-116	274	100813	0.43 
30.023	-1.6851	-0.1279	1.9990	26.1841	49.8657	-139.5264	-19.4788	28.0206	66.5277	43.5800	135	-99	273	100812	0.43 
30.070	-1.2925	-0.3140	1.5737	2.2583	-19.2261	-40.9546	-20.4181	26.1530	61.0565	43.5900	130	-77	275	100813	0.43 
30.195	-1.3335	-0.1006	1.8809	18.0054	25.0244	-65.0024	-21.9397	25.2686	54.5746	43.5700	119	-54	276	100812	0.43 
30.273	-1.2349	-0.1030	1.6694	30.0293	21.2402	-37.9028	-20.7037	25.4883	52.0038	43.5800	114	-44	274	100812	0.43 
30.648	-1.1714	-0.1758	1.8213	28.5645	6.9580	-19.4092	-18.4845	26.9879	51.1578	43.5800	107	-41	271	100812	0.43 
30.695	-1.2773	0.0044	1.9834	16.4185	10.5591	-13.6719	-17.0068	27.9163	50.9930	43.5900	97	-37	272	100812	0.43 
30.695	-1.4829	-0.6919	2.1787	24.4751	0.1221	-62.3169	-16.4465	27.8064	50.7623	43.6000	98	-37	270	100813	0.43 
30.836	-1.5322	0.1431	1.2959	34.0576	-28.5034	-46.2036	-16.2543	25.2960	44.7473	43.6000	84	-31	266	100813	0.43 
30.898	-1.7822	-0.0830	2.2393	75.5005	28.2593	-127.1362	-14.4690	25.5817	37.9468	43.5900	66	-23	260	100812	0.43 
30.898	-1.3267	0.0645	1.3481	35.5225	17.8223	-67.4438	-12.8046	24.2743	32.7228	43.5900	43	-19	246	100813	0.43 
31.070	-1.4072	0.1270	1.8989	28.4424	-2.9297	-62.4390	-12.4200	26.8176	28.0151	43.5800	32	-13	243	100812	0.43 
31.195	-1.3560	0.1753	1.8042	18.3105	18.8599	-36.3770	-12.3047	27.2186	26.2244	43.5800	22	-13	243	100813	0.43 
31.257	-1.2666	-0.0020	1.8203	14.0381	-15.3809	-43.9453	-12.0905	27.0648	26.2354	43.5900	15	-14	239	100813	0.43 
31.429	-1.8691	0.2661	2.2983	7.2632	44.4946	-25.2075	-13.0133	27.8668	25.3400	43.6000	3	-16	237	100813	0.43 
31.476	-1.4448	-0.3081	1.3027	-14.8926	-34.4238	-65.8569	-15.8203	26.5375	25.2136	43.5800	-3	-13	240	100813	0.43 
31.507	-1.3623	0.0986	1.8062	-13.9160	12.5122	-12.8784	-18.1769	27.2076	24.0546	43.5500	-19	-7	234	100813	0.43 
31.664	-1.3838	-0.2969	1.5859	6.9580	-16.2964	-52.3071	-20.4071	25.5377	23.2526	43.5000	-23	-6	236	100812	0.43 
31.851	-1.4170	0.0659	1.6841	-10.6812	-11.4136	-2.8076	-21.2256	24.9060	23.3350	43.4900	-35	-2	239	100812	0.43 
32.023	-1.2456	-0.2617	1.5420	-7.0801	12.9395	7.5684	-21.3135	26.2024	27.3944	43.5000	-39	-1	240	100811	0.43 
32.101	-1.2983	-0.3252	2.1797	-0.4883	7.2632	-25.3296	-21.9177	28.3777	28.1909	43.4800	-39	-1	240	100811	0.43 
32.101	-1.7183	-0.1592	2.1792	11.5967	19.2871	27.4658	-20.5719	29.0094	29.6356	43.5000	-42	0	245	100811	0.43 
32.257	-1.5806	-0.0771	1.5010	8.8501	-10.3149	63.5986	-16.7047	30.3223	37.2821	43.4800	-39	0	242	100811	0.43 
32.320	-1.3125	-0.0386	1.7744	30.3955	5.5542	-7.1411	-13.2111	31.6132	44.1925	43.4700	-26	-2	240	100811	0.43 
32.461	-1.2607	-0.1050	1.2427	0.7935	-14.5264	11.2305	-10.8984	30.7068	47.6917	43.4600	-22	-6	241	100810	0.43 
32.507	-1.3574	0.0581	1.8511	4.3335	18.2495	-2.4414	-10.0525	32.9041	49.5813	43.4600	-20	-5	240	100810	0.43 
32.727	-1.3330	0.2173	1.9258	-5.9814	14.2212	10.1929	-10.4425	34.5630	51.6467	43.4700	-18	-8	243	100810	0.43 
32.883	-1.6553	0.2036	2.0303	-5.4932	-7.0801	10.9863	-9.4427	34.8212	56.4038	43.4600	-18	-6	244	100809	0.43 
32.930	-1.5605	-0.4097	1.3735	-19.2871	-32.0435	-49.9878	-10.6952	34.8651	57.3981	43.4500	-14	-6	249	100809	0.43 
32.945	-1.2881	-0.0225	1.8369	-12.6343	-3.1128	-18.4326	-12.5079	34.6124	55.4041	43.4400	-18	-4	250	100808	0.43 
33.086	-1.2256	-0.1226	1.0938	1.7700	-12.6953	-38.6963	-14.6777	32.0801	54.6240	43.4300	-23	-1	250	100808	0.43 
33.133	-1.3774	-0.1123	1.9360	-9.2163	7.3242	-10.8032	-16.7706	33.5852	52.8607	43.4400	-32	0	250	100808	0.43 
33.305	-1.2285	-0.1924	1.9854	4.3335	-1.8311	15.1367	-15.6335	33.7006	55.7501	43.4400	-31	0	256	100807	0.43 
33.461	-1.7739	-0.0435	2.2505	3.2349	32.8369	-4.3335	-14.6118	33.5687	55.9314	43.4400	-32	0	257	100807	0.43 
33.523	-1.6641	0.1704	1.3643	-1.8921	-20.9351	58.1665	-10.8820	33.8928	61.4026	43.4400	-31	0	255	100807	0.43 
33.523	-1.3701	-0.1255	1.8218	13.6719	16.5405	21.0571	-7.8223	35.6232	66.0333	43.4300	-19	-4	253	100807	0.43 
33.664	-1.2788	-0.0308	1.4072	-3.4790	6.4697	10.2539	-6.6193	36.1560	68.8953	43.4200	-16	-6	252	100807	0.43 
33.758	-1.3755	0.0845	1.7686	-1.2207	15.7471	1.9531	-5.5042	38.2928	70.9607	43.4500	-12	-9	255	100806	0.43 
33.867	-1.4307	0.1289	2.2778	-4.3945	-2.5024	1.7090	-5.8942	38.7927	71.7297	43.4500	-9	-7	255	100806	0.43 
33.946	-1.7881	0.0693	2.2646	-2.6855	31.7993	1.5869	-5.5701	38.2654	74.3060	43.4500	-7	-8	256	100806	0.43 
34.070	-1.3413	-0.3354	0.9658	-11.9019	-37.2925	-55.5420	-8.4485	35.3760	71.9604	43.4400	-10	-6	260	100806	0.43 
34.242	-1.4326	-0.0200	1.9517	-7.8735	-23.0103	-37.4146	-11.4148	35.5298	67.5000	43.4400	-18	-1	260	100805	0.43 
34.321	-1.1812	-0.1484	1.2085	-6.1035	9.5825	-20.5078	-12.8925	32.4866	66.0553	43.4200	-27	2	258	100805	0.43 
34.336	-1.3096	-0.1675	1.9082	-2.9297	-2.8076	4.0894	-14.1010	34.1235	65.0006	43.4200	-29	0	263	100805	0.43 
34.508	-1.2827	-0.2402	2.2529	7.2632	19.7144	-22.1558	-14.0240	34.5465	64.8962	43.4100	-28	0	263	100805	0.43 
34.571	-1.8340	-0.0571	2.3779	13.8550	25.5737	27.4048	-11.9312	35.5518	66.3135	43.4300	-26	-3	266	100804	0.43 
34.711	-1.3115	-0.1138	1.2681	13.9160	-3.0518	11.1084	-7.2125	35.9363	71.8561	43.4100	-19	-5	262	100804	0.43 
34.852	-1.3755	-0.0439	1.7393	-0.9766	-17.5781	24.9023	-5.2954	37.1008	73.9655	43.3900	-13	-10	255	100803	0.43 
34.930	-1.2705	-0.0474	1.4346	3.4180	25.2075	14.2822	-3.5486	37.2327	77.7502	43.4000	-6	-12	257	100803	0.44 
34.961	-1.3931	0.0713	1.8472	-3.2959	22.3389	1.1597	-2.9443	39.7266	79.4092	43.3900	-2	-14	262	100803	0.44 
35.164	-1.4966	-0.0742	2.1118	-8.7280	-4.0283	44.1895	-1.2579	41.4789	83.0017	43.4000	-2	-16	264	100803	0.44 
35.305	-1.8184	-0.3145	2.3745	-13.1836	-32.2876	-7.9346	-0.9503	41.4514	85.3802	43.4000	6	-18	272	100802	0.44 
35.352	-1.3203	0.0806	1.2910	8.2397	11.1084	-31.7993	-4.9274	39.1443	79.9200	43.3900	0	-10	270	100802	0.44 
35.383	-1.5293	-0.2935	1.7798	-26.4282	-26.0010	-7.8735	-7.2455	39.5288	79.4641	43.3800	-1	-6	272	100801	0.44 
35.539	-1.2700	-0.1514	1.4644	-9.3994	13.1226	-42.0532	-10.2118	37.7655	76.0199	43.3700	-11	-4	275	100801	0.44 
35.696	-1.3970	-0.0366	1.8892	-1.5869	-9.3994	26.6113	-11.6840	38.6224	74.7839	43.3700	-20	0	278	100801	0.44 
35.758	-1.4028	-0.2388	2.0352	8.2397	21.7896	-21.4233	-10.6622	38.7103	74.9982	43.3700	-13	0	283	100800	0.44 
35.868	-1.6943	-0.0728	2.5229	21.4233	-10.6201	-0.7324	-9.8877	39.8694	74.0149	43.3700	-12	0	280	100800	0.44 
35.993	-1.5620	-0.0576	1.2925	-0.1221	6.0425	61.5845	-3.2465	39.0509	81.8811	43.3500	-12	-3	274	100799	0.44 
36.102	-1.3521	-0.0430	1.5386	12.4512	-32.1655	-2.2583	-0.5109	38.2874	83.5785	43.3500	-4	-4	272	100799	0.44 
36.165	-1.3281	0.1245	1.5889	2.0142	21.1792	16.9067	1.3239	37.9358	86.8030	43.3500	-1	-7	268	100799	0.44 
36.274	-1.3374	0.0259	1.7476	-7.4463	-18.7988	2.9907	0.9119	37.9358	87.9510	43.3500	1	-5	271	100798	0.44 
36.337	-1.5806	0.3335	2.3862	0.0000	13.1226	23.3154	1.0052	38.6884	88.9398	43.3500	3	-8	278	100798	0.44 
36.508	-1.8125	-0.1787	2.3599	-15.1978	3.3569	-10.8032	0.9943	38.1171	90.2747	43.3500	6	-4	278	100798	0.44 
36.587	-1.3140	-0.2969	1.2793	1.4648	-11.4136	-46.2036	-3.4222	35.6506	85.3912	43.3400	0	0	278	100798	0.44 
36.712	-1.2920	-0.0381	1.9038	-7.2021	-23.0103	-34.4849	-7.5256	34.8486	80.1178	43.3600	-11	2	278	100798	0.44 
36.790	-1.2451	-0.2012	1.5630	-8.4839	11.8408	-16.8457	-9.3658	33.1952	77.9095	43.3300	-24	7	276	100798	0.44 
36.946	-1.2095	-0.1553	1.8359	-1.7700	1.3428	-14.8926	-10.9424	34.0411	75.2454	43.3500	-29	11	280	100798	0.44 
37.149	-1.3252	-0.1533	2.1748	5.4932	17.7002	-8.1787	-11.0083	34.8431	74.0369	43.3600	-31	10	280	100797	0.44 
37.336	-1.6548	-0.0078	2.3135	16.7236	8.6060	18.3105	-9.1132	36.8372	75.1959	43.3700	-30	10	278	100797	0.44 
37.383	-1.4575	-0.0630	1.3979	-4.2725	17.5171	59.4482	-4.2572	37.5293	81.3043	43.3500	-21	10	272	100797	0.44 
37.415	-1.3569	-0.0771	1.6021	1.7090	-19.5923	15.6860	-1.0382	38.5565	85.7208	43.3600	-11	10	269	100796	0.44 
37.571	-1.3296	0.0488	1.5562	0.7324	29.4800	16.7236	0.9064	39.0674	88.6377	43.3600	-6	11	270	100796	0.44 
37.711	-1.4150	-0.0400	1.7827	4.2725	13.7329	-0.9155	1.9775	41.1987	89.9561	43.3600	0	10	272	100796	0.44 
37.774	-1.4448	0.1494	2.0166	4.1504	21.6064	11.4136	2.7795	42.5226	90.6976	43.3500	2	6	272	100796	0.44 
37.774	-1.9243	0.1655	2.4785	1.5259	10.8032	-7.9346	2.7411	43.5663	90.2142	43.3600	7	6	268	100796	0.44 
37.805	-1.4111	-0.3081	1.1353	-14.0381	-33.5693	-45.4712	-0.7635	39.8474	86.5228	43.3400	1	11	268	100796	0.44 
37.977	-1.4180	0.1167	1.9165	-9.5825	3.2959	-30.8838	-4.4934	41.0010	81.5900	43.3400	-8	20	266	100796	0.44 
38.133	-1.2065	-0.2124	1.2861	-5.3711	-12.5732	-19.9585	-7.7124	38.3862	78.3325	43.3200	-22	28	263	100796	0.44 
38.180	-1.3862	-0.0869	1.9541	-10.8643	2.1362	-12.4512	-10.3656	39.1608	74.9213	43.3400	-27	32	267	100795	0.44 
38.337	-1.2627	-0.2974	1.7256	-3.1738	8.1787	-3.2959	-10.2667	38.6884	75.2838	43.3500	-30	33	272	100795	0.44 
38.383	-1.6831	-0.3530	2.2212	6.9580	-4.4556	16.9067	-10.5634	39.4135	73.5150	43.3500	-32	36	270	100794	0.44 
38.508	-1.5723	0.0713	1.3921	11.6577	4.7607	55.7861	-6.7786	38.4851	76.0089	43.3500	-31	39	265	100794	0.44 
38.587	-1.3496	-0.0918	1.7290	23.2544	2.4414	1.2207	-3.6639	39.4574	78.8049	43.3300	-25	34	257	100793	0.44 
38.743	-1.3589	-0.0679	1.4067	11.2915	7.1411	11.4136	-1.6479	38.9520	79.9695	43.3300	-22	32	251	100793	0.44 
38.790	-1.3950	0.0957	1.7588	0.6104	9.6436	16.4185	0.0769	40.2869	81.0022	43.3400	-20	32	253	100793	0.44 
38.946	-1.3657	0.0493	1.7280	-10.0708	19.7754	6.5918	0.7416	41.2921	82.4854	43.3500	-14	34	250	100792	0.44 
39.009	-1.3789	-0.0815	2.1357	-6.7749	2.3193	17.1509	1.3129	42.4127	84.4739	43.3400	-11	34	251	100792	0.44 
39.149	-1.8286	-0.1616	2.3027	-17.8833	-18.7988	37.1094	1.8018	42.8851	86.9897	43.3600	0	33	257	100792	0.44 
39.227	-1.4834	-0.3110	1.2412	5.9204	-12.1460	-59.6924	-2.6587	40.8197	81.3208	43.3400	-5	36	253	100792	0.44 
39.384	-1.4526	-0.0991	1.7632	-13.9771	-30.7617	-30.2124	-6.5753	39.7266	75.8221	43.3500	-21	41	249	100792	0.44 
39.415	-1.2949	-0.1289	1.5278	-5.4932	2.7466	-26.9775	-9.0363	37.3480	72.2571	43.3300	-40	43	248	100791	0.45 
39.571	-1.3022	-0.1675	1.6943	-1.4648	-6.3477	-10.0098	-10.7556	37.0404	69.0436	43.3500	-45	45	245	100791	0.45 
39.634	-1.3584	-0.2759	1.9917	-2.8076	27.5879	-0.5493	-10.6293	37.8259	68.1592	43.3500	-47	45	245	100790	0.45 
39.774	-1.7627	-0.2041	2.4385	3.1738	6.7749	3.1738	-10.8105	39.3420	66.1981	43.3500	-43	41	244	100790	0.45 
39.852	-1.6733	-0.0493	1.3408	9.3384	6.6528	36.2549	-6.2567	39.6002	69.5105	43.3500	-47	38	235	100789	0.45 
39.993	-1.3359	-0.0522	1.6621	24.4141	-7.3853	16.7236	-3.3783	40.4242	71.1090	43.3400	-38	35	226	100789	0.45 
40.056	-1.3804	0.0127	1.5503	3.2959	11.6577	16.6626	-0.8350	40.4462	73.7128	43.3300	-40	27	221	100789	0.45 
40.196	-1.4336	0.0215	1.8062	4.3335	1.5869	10.9863	1.3458	41.5283	75.8221	43.3400	-30	26	217	100788	0.45 
40.259	-1.4546	0.0859	1.9790	-3.2349	5.0049	10.2539	2.4335	41.7316	77.4042	43.3300	-26	24	219	100788	0.45 
40.399	-1.6069	0.1479	1.7856	0.9766	37.7808	-5.6152	1.7358	40.1825	77.7997	43.3400	-28	24	216	100789	0.45 
40.462	-1.4917	-0.0269	2.0542	-3.0518	-25.0244	-22.9492	1.8951	40.9790	78.0853	43.3500	-26	26	215	100789	0.45 
40.571	-1.5410	-0.0366	1.3325	-6.2256	1.4648	-25.8179	-1.5765	40.1990	73.4656	43.3400	-37	26	211	100788	0.45 
40.776	-1.3472	-0.2227	1.5474	-7.2021	-33.3862	-22.4609	-3.9166	39.2926	72.0209	43.3300	-44	28	209	100788	0.45 
40.854	-1.4502	-0.1353	1.6353	-5.1880	-3.7842	2.1973	-5.4987	37.9413	70.3674	43.3500	-54	35	210	100787	0.45 
40.870	-1.3408	-0.1260	1.6919	-0.7324	-8.7280	-7.8125	-6.0150	37.3755	69.1809	43.3500	-57	33	213	100787	0.45 
40.995	-1.3555	-0.0410	1.8193	12.6953	-16.1133	30.3345	-4.5813	36.9855	70.1532	43.3400	-58	31	210	100787	0.45 
41.073	-1.6470	0.0518	2.2646	5.0049	-15.9302	-6.2866	-1.2469	37.1777	72.3779	43.3500	-52	26	209	100787	0.45 
41.214	-1.3628	-0.2305	1.8999	-21.1792	32.2266	8.3618	-1.5271	36.0626	71.5265	43.3600	-58	23	204	100787	0.45 
41.276	-1.2466	0.0386	1.4648	1.1597	-25.0244	-0.5493	-1.7139	34.3982	71.5485	43.3600	-58	22	204	100787	0.45 
41.417	-1.5454	0.0859	2.0708	4.1504	5.8594	-6.8970	-2.1423	35.9308	70.7355	43.3800	-59	28	208	100787	0.45 
41.573	-1.3130	-0.0903	1.6982	-3.7231	2.1362	9.3384	-2.0325	35.1123	71.4111	43.3600	-61	25	207	100787	0.45 
41.635	-1.3828	-0.0059	1.7798	-2.6855	-7.6294	-3.9063	-2.3676	35.2936	70.9607	43.3700	-61	27	209	100787	0.45 
41.760	-1.3521	-0.1265	1.8066	-4.1504	-8.6670	10.8032	-2.2687	34.8926	71.6968	43.3700	-62	24	206	100787	0.45 
41.839	-1.3223	-0.0815	1.8027	-2.5024	-0.1831	1.8311	-2.2028	34.6124	71.6803	43.3700	-61	28	208	100787	0.45 
42.010	-1.3438	-0.0840	1.8335	-0.3052	0.7324	3.2349	-2.2687	34.8596	71.4221	43.4000	-62	31	211	100786	0.45 
42.057	-1.3345	-0.0649	1.8110	0.0610	-1.8921	1.8921	-2.2961	34.8047	70.9882	43.3800	-61	27	212	100787	0.45 
42.167	-1.3555	-0.0938	1.8286	-2.3804	2.8076	-1.2817	-2.5323	34.9255	70.5487	43.4000	-62	27	207	100786	0.45 
42.245	-1.3447	-0.0693	1.8125	-1.4038	0.8545	-0.4272	-2.8235	35.1178	69.9829	43.4000	-60	28	209	100786	0.45 
42.385	-1.3525	-0.0723	1.8164	-1.5869	-2.6855	2.3804	-2.9718	35.1947	69.5270	43.4000	-61	33	212	100786	0.45 
42.479	-1.3535	-0.0898	1.8315	-0.6714	-1.7700	1.4038	-2.9773	35.0189	69.3512	43.4100	-57	30	211	100786	0.45 
42.604	-1.3325	-0.0972	1.8140	-0.2441	-2.9297	2.0752	-2.8839	34.6838	69.2798	43.4200	-59	30	211	100787	0.45 
42.667	-1.3154	-0.0845	1.8115	-1.3428	-2.4414	2.1973	-2.8455	34.3762	69.1919	43.4200	-57	28	213	100787	0.45 
42.792	-1.3320	-0.1030	1.8174	-1.4648	-0.6104	2.9907	-2.7576	34.3872	69.1589	43.4300	-61	31	212	100787	0.45 
42.870	-1.3291	-0.0894	1.8237	-0.9766	-1.3428	0.4883	-2.7960	34.3982	68.8239	43.4400	-60	33	212	100787	0.45 
43.042	-1.3413	-0.0952	1.8315	0.3052	-0.5493	0.5493	-2.7850	34.3213	68.4393	43.4500	-60	31	214	100787	0.45 
43.104	-1.3057	-0.0898	1.8047	0.4883	-1.8311	1.1597	-2.6587	34.0466	68.2581	43.4500	-57	29	211	100787	0.45 
43.245	-1.3164	-0.0894	1.8267	0.0000	-2.9907	2.9907	-2.4719	34.0027	68.1866	43.4500	-57	30	214	100787	0.45 
43.385	-1.2959	-0.0781	1.8228	-0.3052	-0.8545	2.9907	-2.2852	33.9258	68.2635	43.4600	-62	28	214	100787	0.45 
43.448	-1.3276	-0.0791	1.8423	0.3662	-2.0752	1.2207	-2.1753	33.9258	68.2581	43.4700	-56	30	212	100787	0.45 
43.479	-1.3066	-0.0859	1.8252	-0.2441	-0.1221	2.9297	-2.0709	33.7390	68.2251	43.4500	-57	32	213	100787	0.45 
43.636	-1.3066	-0.0894	1.8184	-0.4883	-0.7935	1.7700	-2.0160	33.7225	68.0603	43.4700	-58	31	213	100788	0.45 
43.716	-1.3052	-0.0918	1.8267	-0.4272	-0.4272	-0.7935	-2.0764	33.8159	67.6978	43.4900	-60	31	211	100787	0.45 
43.826	-1.3047	-0.0869	1.8286	-0.6104	0.8545	-0.9766	-2.2302	33.9038	67.2089	43.4900	-60	32	213	100787	0.45 
43.920	-1.3115	-0.0889	1.8262	0.0000	0.1221	-2.1362	-2.4500	34.0137	66.6046	43.4900	-60	31	215	100787	0.45 
44.029	-1.2974	-0.0938	1.8101	0.0610	1.3428	-1.0376	-2.5653	34.0686	66.0773	43.5100	-59	32	209	100787	0.45 
44.123	-1.3037	-0.0933	1.8179	0.1831	0.4272	-1.4648	-2.6532	34.2719	65.5334	43.5000	-59	33	214	100787	0.45 
44.248	-1.2998	-0.0649	1.8286	-0.1831	0.9766	-2.2583	-2.7356	34.4641	64.9896	43.5200	-61	32	213	100787	0.45 
44.435	-1.3159	-0.0796	1.8311	-0.9155	2.8687	2.5024	-2.7081	34.7827	64.9677	43.5200	-60	27	215	100787	0.45 
44.482	-1.3154	-0.0859	1.8203	0.6714	1.8311	-0.0610	-2.7026	35.0464	64.9072	43.5300	-59	31	212	100787	0.45 
44.529	-1.3120	-0.0791	1.8052	-0.7324	1.7700	2.0752	-2.6147	35.2222	64.8413	43.5400	-56	31	211	100787	0.45 
44.685	-1.3218	-0.0786	1.8193	-1.4038	0.0610	1.5869	-2.5763	35.5243	64.9622	43.5500	-58	31	215	100787	0.45 
44.841	-1.3262	-0.0913	1.8145	-0.9766	0.0610	2.3193	-2.4884	35.6012	65.1819	43.5500	-55	31	210	100787	0.45 
44.904	-1.3403	-0.0776	1.8262	-0.4272	-0.0610	-0.7324	-2.4994	35.7001	65.1984	43.5600	-54	28	212	100787	0.45 
45.045	-1.3237	-0.0776	1.8188	-0.3662	0.6104	-0.2441	-2.5543	35.7111	65.1270	43.5500	-54	29	214	100787	0.45 
45.138	-1.3257	-0.0840	1.8179	-0.7935	0.9155	2.6855	-2.4554	35.7825	65.3082	43.5800	-58	29	216	100787	0.45 
45.248	-1.3276	-0.0693	1.8330	0.2441	-1.0376	0.6714	-2.3621	35.9033	65.3961	43.5600	-55	30	213	100787	0.45 
45.326	-1.3369	-0.0688	1.8262	0.5493	-1.8921	1.4648	-2.2742	35.7990	65.4236	43.5700	-51	31	214	100787	0.45 
45.466	-1.3237	-0.0830	1.8130	0.6104	-0.9766	1.4648	-2.1478	35.6287	65.5280	43.5600	-51	32	215	100787	0.45 
45.513	-1.3213	-0.0791	1.8203	0.1831	-3.4180	-0.4272	-2.0764	35.4803	65.5664	43.5900	-52	28	213	100787	0.45 
45.638	-1.3179	-0.0688	1.8262	0.7324	-2.4414	-0.2441	-2.0874	35.2661	65.4895	43.6000	-55	27	210	100786	0.45 
45.701	-1.3223	-0.0532	1.8403	0.8545	-1.8311	-0.1221	-2.0380	35.2112	65.3906	43.5900	-58	30	214	100786	0.45 
45.873	-1.3193	-0.0664	1.8315	1.0376	-0.7935	1.8311	-1.9006	35.1233	65.4620	43.6000	-55	31	211	100786	0.45 
45.936