StartTime: 2017-07-11 15:37:52.187
Time(s)	ax(g)	ay(g)	az(g)	wx(deg/s)	wy(deg/s)	wz(deg/s)	AngleX(deg)	AngleY(deg)	AngleZ(deg)	T(°)	hx	hy	hz	Pressure(Pa)	Altitude(m) 
20.567	-1.3013	-0.0908	1.8276	-1.4648	1.5869	1.2207	-2.8400	35.9143	145.8600	44.3100	43	-278	267	100847	0.40 
20.770	-1.3125	-0.1025	1.8296	-0.8545	1.8921	-2.4414	-3.0048	36.0626	145.6403	44.3100	45	-277	266	100846	0.40 
20.801	-1.3135	-0.0957	1.8071	-0.4883	0.9155	-2.0142	-3.1970	36.1121	145.2063	44.3200	45	-271	267	100847	0.40 
20.910	-1.3164	-0.0981	1.8218	-1.0986	0.7324	-0.2441	-3.2959	36.1890	144.9316	44.3300	44	-274	265	100846	0.40 
20.989	-1.3081	-0.0811	1.8228	-0.8545	0.3662	1.9531	-3.2849	36.1945	144.8987	44.3200	42	-276	267	100846	0.40 
21.114	-1.3081	-0.0908	1.8267	-0.6104	0.3662	-0.2441	-3.2739	36.2329	144.8767	44.3300	45	-274	264	100846	0.40 
21.207	-1.3262	-0.0889	1.8188	-1.6479	0.7324	2.1362	-3.3563	36.3043	144.7888	44.3200	44	-274	263	100846	0.40 
21.332	-1.3149	-0.0889	1.8179	-1.5869	1.0376	1.3428	-3.3563	36.3428	144.8877	44.3500	41	-275	265	100846	0.40 
21.395	-1.3320	-0.0884	1.8115	-2.3193	3.9063	2.7466	-3.3289	36.5680	145.1074	44.3400	43	-274	268	100846	0.40 
21.535	-1.3687	-0.0811	1.7954	-2.5635	1.4038	7.5684	-3.2245	36.9360	145.5194	44.3600	46	-276	265	100846	0.40 
21.692	-1.2871	-0.1284	1.6763	0.2441	-5.4321	-0.1221	-2.9608	36.5570	145.7062	44.3500	40	-272	263	100846	0.40 
21.754	-1.3306	-0.2251	1.9429	10.2539	7.2021	-25.5127	-4.1583	37.6337	143.4595	44.3600	41	-276	265	100846	0.40 
21.895	-1.3384	0.0049	1.8818	-8.1177	-8.6670	13.7329	-4.0814	36.9910	142.9761	44.3600	47	-275	269	100846	0.40 
21.958	-1.2290	-0.1377	1.8257	-13.9160	5.5542	1.7090	-4.8615	37.3206	143.6572	44.3600	46	-273	266	100846	0.40 
22.130	-1.2134	-0.1797	1.9204	-11.3525	4.0283	3.0518	-5.9106	37.5018	144.0198	44.3600	43	-273	263	100846	0.40 
22.192	-1.2178	-0.1519	1.8706	4.0283	2.5024	-8.9111	-5.6140	36.9086	144.3274	44.3500	43	-272	261	100846	0.40 
22.348	-1.7095	-0.1343	2.6030	14.6484	7.3242	18.7378	-5.4657	39.2487	144.1516	44.3600	41	-274	265	100846	0.40 
22.505	-1.5693	0.0166	1.3589	9.1553	31.0059	49.4385	-1.5656	40.4132	148.2550	44.3500	35	-279	261	100847	0.40 
22.536	-1.3428	-0.1206	1.8633	12.0239	-22.3999	-17.8223	1.1975	41.5942	150.2600	44.3400	27	-283	270	100847	0.40 
22.723	-1.3174	0.0454	1.4629	7.4463	20.5688	16.5405	3.4332	40.5725	151.5399	44.3200	23	-286	269	100847	0.40 
22.755	-1.3862	-0.0024	1.6611	6.5918	4.8218	-7.5073	3.9386	41.9128	151.4026	44.3200	21	-286	274	100847	0.40 
22.817	-1.5020	0.0967	2.1069	5.0659	-4.3945	5.3101	4.2792	42.6709	151.0016	44.3200	22	-290	277	100847	0.40 
22.974	-1.8032	0.1172	2.1250	-7.1411	50.9033	-15.1978	2.7356	42.7698	149.0405	44.3100	23	-286	275	100846	0.40 
23.098	-1.4321	-0.2456	1.3232	-1.8921	-16.6016	-34.8511	-0.2087	41.5448	145.7666	44.3100	29	-283	276	100846	0.40 
23.161	-1.3535	0.0332	1.8745	-2.5024	-23.7427	-17.2119	-3.3783	40.8527	141.5369	44.2900	36	-272	272	100846	0.40 
23.224	-1.2358	-0.1426	1.4199	-7.3853	-18.4326	-16.1133	-5.0592	37.6941	140.2460	44.3100	32	-271	267	100845	0.40 
23.411	-1.2788	-0.0947	1.7261	-13.4888	-2.6855	4.3945	-6.1139	37.4799	139.8779	44.2900	36	-269	265	100845	0.40 
23.536	-1.2944	-0.2334	1.9321	-9.2163	18.9819	8.5449	-6.7566	38.4796	140.8063	44.2600	32	-262	263	100845	0.40 
23.583	-1.4204	-0.3618	1.7549	5.6152	14.0381	-8.0566	-7.2839	38.3368	139.4330	44.2800	32	-261	268	100845	0.40 
23.723	-1.4224	0.0259	1.5239	11.8408	-5.8594	31.0059	-5.9491	39.1223	139.9438	44.2800	37	-266	266	100845	0.40 
23.786	-1.3774	0.0029	1.7964	12.9395	3.9063	16.6626	-1.8292	40.2374	144.6240	44.2600	29	-274	269	100845	0.40 
23.942	-1.3613	-0.0894	1.5566	3.4790	-14.1602	18.2495	0.2197	38.9685	146.7719	44.2500	20	-274	271	100844	0.40 
24.020	-1.3516	-0.0015	1.6831	-0.3662	-4.2114	20.3857	1.8127	38.5291	148.8318	44.2600	15	-277	270	100844	0.40 
24.161	-1.2920	0.0356	1.6504	-6.0425	10.3149	-1.0376	2.5378	38.6334	150.1666	44.2500	11	-280	275	100843	0.40 
24.208	-1.3760	0.0010	1.9644	-6.2866	-0.5493	-9.5215	0.8240	39.9792	148.9636	44.2600	9	-280	273	100844	0.40 
24.380	-1.9580	-0.1572	2.7578	-7.8125	-9.7046	-3.2349	0.8075	41.9403	149.0131	44.2600	13	-280	277	100843	0.40 
24.567	-1.4331	-0.1514	1.2334	-3.6621	6.2866	-43.8232	-2.9993	40.5945	144.5416	44.2700	15	-277	271	100843	0.40 
24.630	-1.4116	-0.1646	1.8140	-5.7373	-12.3291	-12.4512	-5.5701	40.8307	142.1686	44.2500	19	-271	268	100842	0.40 
24.739	-1.3477	-0.1548	1.5625	-2.2583	-3.4180	-22.3999	-7.2455	39.5947	139.8285	44.2400	24	-263	264	100841	0.40 
24.786	-1.2603	-0.1440	1.6025	-3.7842	-5.1270	-4.5776	-8.5913	39.0344	137.9663	44.2500	27	-262	264	100841	0.40 
24.974	-1.4097	-0.2349	2.0151	5.0659	1.4648	-5.6152	-8.6462	39.3146	137.8619	44.2400	33	-257	263	100841	0.40 
25.036	-1.5747	-0.3296	2.1284	0.1831	26.3672	-5.4932	-8.7781	38.8422	136.7853	44.2500	33	-261	263	100841	0.40 
25.146	-1.5034	-0.1738	1.1924	-3.1128	7.2021	57.4341	-4.8340	39.2487	140.7513	44.2400	30	-259	266	100840	0.40 
25.192	-1.4580	0.0210	1.9644	6.2866	-6.8359	17.5171	-1.3184	41.4349	145.0909	44.2300	21	-264	270	100840	0.40 
25.380	-1.4272	0.0464	1.5605	-1.0986	6.2866	21.7285	0.6042	40.2429	147.6343	44.2100	14	-266	271	100840	0.40 
25.411	-1.3779	-0.0225	1.7134	2.0752	-3.4180	9.2773	1.8182	40.5890	149.3811	44.2400	10	-269	274	100839	0.40 
25.583	-1.4136	0.1870	1.8345	0.1831	-5.1880	15.6860	2.6038	40.1605	150.4193	44.2400	5	-273	273	100839	0.41 
25.802	-1.5718	-0.0664	1.8462	6.5308	-0.5493	-12.3291	4.0430	38.6279	152.4628	44.2600	-1	-274	274	100839	0.41 
25.880	-1.4663	-0.1118	1.7563	-5.1270	-28.0151	-31.6772	2.9553	37.9083	149.7876	44.2300	0	-273	276	100838	0.41 
25.958	-1.3818	0.0313	1.7036	-5.4932	15.7471	-10.8643	-0.8295	38.6774	144.1736	44.2300	10	-271	274	100838	0.41 
25.989	-1.3442	-0.1792	1.4932	-8.6670	-17.3950	-14.0381	-2.4060	38.1940	143.5913	44.2200	16	-268	273	100838	0.41 
26.036	-1.3892	-0.1216	1.7144	-8.3618	4.0894	-23.7427	-4.8999	38.3093	140.4822	44.2300	21	-263	269	100838	0.41 
26.208	-1.3228	-0.0942	1.7427	-11.5356	8.4229	-10.0708	-7.4487	38.4247	137.9828	44.2000	26	-262	269	100837	0.41 
26.349	-1.3267	-0.1748	1.8926	-0.9155	5.2490	-0.3052	-8.2178	38.8751	137.7026	44.2000	29	-259	266	100837	0.41 
26.411	-1.8906	0.0938	2.5410	12.0850	11.2915	16.6626	-7.8937	40.4462	137.5983	44.2300	35	-258	268	100837	0.41 
26.458	-1.5674	-0.1558	1.2964	-2.1362	27.2217	39.2456	-4.4495	41.0779	142.2345	44.1900	29	-261	265	100836	0.41 
26.599	-1.4033	-0.0122	1.6812	5.4321	-24.0479	21.1792	-1.1261	42.7478	145.7336	44.1800	24	-266	269	100836	0.41 
26.661	-1.4702	0.1533	1.6914	-2.5635	2.2583	17.2729	0.6537	41.8359	147.9529	44.1800	17	-270	269	100836	0.41 
26.802	-1.3174	-0.1587	1.6143	3.1128	-7.0190	2.8687	1.5326	40.8966	149.7656	44.1700	6	-269	267	100836	0.41 
26.958	-1.4795	0.1978	1.9126	1.8311	5.5542	10.3149	2.0325	41.2042	149.6008	44.1600	6	-271	270	100836	0.41 
26.990	-1.7383	-0.1406	2.0063	9.4604	23.4375	9.2773	3.2684	41.4954	150.7764	44.1700	4	-271	271	100836	0.41 
27.193	-1.4248	-0.0386	1.3569	3.4790	-11.2915	-54.4434	0.8734	41.8469	146.8488	44.1500	6	-269	273	100836	0.41 
27.224	-1.5132	-0.2021	1.9346	-10.0708	28.9307	-27.8320	-2.2412	43.8135	142.3279	44.1500	22	-269	276	100835	0.41 
27.412	-1.3691	-0.1631	1.4883	-5.3711	-17.5781	-31.4331	-5.2789	41.9403	138.7573	44.1500	31	-263	274	100835	0.41 
27.474	-1.4385	-0.1328	1.8125	-6.1035	-10.6812	-35.1563	-8.8110	41.0944	134.0552	44.1400	37	-258	271	100834	0.41 
27.646	-1.2808	-0.0933	1.5791	0.0000	-15.3198	7.7515	-9.0253	38.4357	133.3630	44.1500	41	-252	268	100833	0.41 
27.677	-1.5483	-0.6431	2.0264	3.8452	23.4375	-8.8501	-8.9703	38.8861	133.0994	44.1300	43	-254	266	100833	0.41 
27.771	-1.2930	-0.1006	1.2510	4.5776	-19.8364	46.7529	-5.8777	37.7875	134.9121	44.1500	43	-252	270	100833	0.41 
27.865	-1.4399	-0.0068	2.0454	10.4370	8.7891	5.0049	-3.0597	40.2539	138.6859	44.1400	37	-260	274	100832	0.41 
28.021	-1.3560	-0.1792	1.4277	5.7983	-1.5869	-2.6245	-2.5269	38.5400	139.1528	44.1200	37	-262	269	100832	0.41 
28.083	-1.4541	0.0923	1.7319	4.3335	-8.6060	15.1367	-1.5491	39.1608	139.6692	44.1200	38	-266	270	100832	0.41 
28.224	-1.3838	0.0215	1.6748	2.6245	17.8833	-4.6387	-0.4395	39.5288	140.7019	44.1100	37	-268	272	100832	0.41 
28.302	-1.4326	0.0254	1.9365	-0.2441	7.7515	2.6855	0.2747	40.8252	141.5753	44.1100	37	-270	278	100832	0.41 
28.427	-1.8252	-0.0171	2.0098	-6.2866	19.9585	8.8501	0.2417	41.8579	142.2015	44.1200	38	-270	278	100831	0.41 
28.490	-1.3701	-0.1235	1.2251	-3.7231	-44.9829	-61.5234	-3.5321	40.1495	137.1478	44.1200	42	-269	275	100831	0.41 
28.646	-1.5615	-0.1528	1.9063	-27.7100	-8.4839	5.7983	-5.4657	40.5560	136.1371	44.1200	47	-260	267	100831	0.41 
28.787	-1.2769	-0.0107	1.3325	-13.5498	-15.0146	11.1084	-6.8390	38.1061	136.6370	44.1100	42	-256	261	100831	0.41 
28.865	-1.3892	-0.2261	1.7295	-16.2964	-5.9814	3.1738	-7.1686	38.4686	138.2410	44.1100	36	-249	254	100830	0.41 
29.037	-1.3516	-0.1396	1.7671	-9.2163	11.8408	24.9023	-7.1631	38.3478	140.0482	44.1100	33	-251	249	100830	0.41 
29.099	-1.3628	-0.2090	1.9844	2.5024	5.2490	19.6533	-5.7349	39.2212	142.1906	44.1000	31	-249	248	100829	0.41 
29.256	-1.8599	0.1553	2.7715	11.3525	6.3477	-1.7090	-4.5538	40.7758	142.8333	44.1100	34	-250	254	100829	0.41 
29.412	-1.5620	-0.2314	1.3057	-0.7935	4.3945	36.5601	-1.8073	39.6771	146.7609	44.0900	31	-251	252	100829	0.41 
29.490	-1.4595	-0.0264	1.6851	6.7139	-13.1836	26.0620	0.9119	40.2484	149.2657	44.0800	25	-254	253	100829	0.41 
29.490	-1.3662	-0.1211	1.6328	5.4932	12.6953	-2.5635	2.4390	40.1990	150.3424	44.0700	17	-255	256	100829	0.41 
29.615	-1.3564	0.1328	1.7144	2.6855	-3.2349	3.8452	3.3453	40.1770	150.5841	44.0600	18	-258	257	100829	0.41 
29.693	-1.3462	-0.0073	2.0195	-1.9531	-39.1235	-1.7700	3.6145	38.9575	151.0071	44.0700	18	-262	262	100828	0.41 
29.834	-1.9473	-0.1406	2.6655	-12.3291	27.0996	-5.7373	3.4003	38.5895	151.3037	44.0700	14	-264	260	100828	0.41 
29.912	-1.3848	0.1011	1.3257	-2.5024	-1.0376	-56.6406	-0.7196	35.6122	145.4370	44.0700	13	-259	256	100828	0.41 
30.068	-1.3706	-0.2095	1.7676	-8.5449	-14.2822	-19.3481	-3.3783	36.3867	142.8003	44.0500	23	-257	253	100827	0.41 
30.255	-1.2490	-0.1606	1.5571	-7.9346	-8.3618	-17.7002	-6.0095	34.7827	139.7461	44.0300	29	-256	250	100827	0.42 
30.318	-1.2920	-0.1616	1.6743	-4.7607	10.6201	-4.9438	-7.4048	35.2057	138.2355	44.0500	30	-250	247	100826	0.42 
30.412	-1.2993	-0.2080	1.9155	-1.2207	-2.0752	-9.2773	-8.2178	35.9747	137.8180	44.0500	38	-246	246	100826	0.42 
30.459	-1.5679	-0.1396	2.1826	-2.9907	6.1035	-6.9580	-10.0964	36.1285	135.4669	44.0500	42	-243	246	100826	0.42 
30.537	-1.5615	0.0957	1.7451	33.2642	-30.9448	30.7007	-7.0203	36.4362	138.0597	44.0600	49	-248	251	100826	0.42 
30.709	-1.4951	-0.0093	1.8828	36.0718	10.3760	-7.1411	-3.3948	36.6064	139.8889	44.0400	40	-258	254	100825	0.42 
30.818	-1.2681	-0.0713	1.3853	6.2866	-16.4795	21.9116	0.0659	34.7827	142.5421	44.0300	33	-265	260	100825	0.42 
30.912	-1.3647	-0.0142	1.7549	5.6763	-7.8735	2.4414	1.2360	35.0793	143.7177	44.0200	30	-272	259	100824	0.42 
31.084	-1.2710	0.0405	1.8628	-6.7139	-1.2207	3.9063	1.5051	34.8596	144.3054	44.0200	26	-276	260	100824	0.42 
31.130	-1.3442	0.0654	1.9551	-7.7515	-1.2817	28.3203	2.1094	34.6729	147.0190	44.0400	24	-280	255	100823	0.42 
31.255	-1.6675	0.1782	2.1484	6.4087	25.6958	-14.7705	1.6974	35.6342	146.2720	44.0300	20	-281	256	100824	0.42 
31.349	-1.2837	-0.2339	1.4404	-1.5259	-11.9019	-46.8750	-0.0769	34.8212	143.5364	44.0300	27	-276	256	100823	0.42 
31.459	-1.4365	-0.1055	1.9683	-14.3433	1.7090	-20.3857	-3.4003	36.4526	139.2078	44.0300	34	-277	254	100823	0.42 
31.552	-1.2446	-0.1250	1.5186	-7.6904	-9.3994	-31.1890	-5.8557	34.6619	136.3513	44.0300	44	-269	252	100822	0.42 
31.630	-1.2847	-0.1211	1.7427	-7.4463	-1.8921	-21.7896	-8.2782	34.6014	133.3466	44.0200	50	-264	247	100822	0.42 
31.709	-1.2354	-0.2437	1.7954	-7.6294	-1.8311	-3.4180	-9.4263	34.3268	133.0719	44.0000	54	-263	243	100822	0.42 
31.896	-1.2173	-0.1382	1.8760	1.4038	-4.3335	-12.8784	-10.1569	33.6896	131.8744	44.0100	54	-255	239	100822	0.42 
32.068	-1.6499	-0.2661	2.4526	-1.3428	29.7852	-15.3198	-10.3986	35.2386	131.1548	44.0200	59	-252	239	100822	0.42 
32.131	-1.3799	-0.1353	1.4868	19.1650	2.9907	-0.9766	-8.6078	34.6124	131.7371	44.0000	60	-251	244	100822	0.42 
32.162	-1.3237	-0.0127	1.8823	42.2974	15.0757	-26.1230	-7.0422	35.7495	129.6002	43.9800	61	-254	252	100821	0.42 
32.318	-1.3096	-0.0566	1.5303	14.4653	-15.9302	-13.6108	-5.1526	34.9695	128.1500	43.9700	66	-256	256	100821	0.42 
32.475	-1.3057	-0.0327	1.7251	14.8926	-6.4087	-19.8364	-4.5538	35.5353	126.6449	43.9500	70	-253	259	100820	0.42 
32.537	-1.2319	-0.1162	1.7061	9.2163	13.3057	-24.9023	-3.5651	35.7605	126.0901	43.9500	75	-251	264	100820	0.42 
32.647	-1.2090	0.0400	1.8423	10.6201	7.5684	-64.2090	-6.9324	36.1780	119.6741	43.9400	88	-243	272	100820	0.42 
32.725	-1.2285	-0.0435	1.8804	15.9302	23.7427	-57.6172	-10.2173	36.3043	113.2526	43.9600	106	-225	278	100819	0.42 
32.897	-1.4937	0.0557	1.8594	43.4570	4.9438	-43.8843	-10.7446	36.0242	106.9958	43.9300	117	-214	283	100819	0.42 
32.944	-1.6426	-0.4180	2.2256	29.1748	10.0708	-28.9307	-6.8665	36.5735	107.4792	43.9700	123	-206	289	100819	0.42 
33.116	-1.1934	0.0298	1.5376	9.3994	0.9155	-58.1055	-10.3436	34.2004	99.1022	43.9600	128	-193	292	100819	0.42 
33.162	-1.5073	-0.2319	1.8462	-1.5869	-17.0898	-40.7104	-13.2880	34.3433	95.4492	43.9500	137	-182	292	100818	0.42 
33.287	-1.2959	-0.1240	1.8237	-2.3193	24.7803	-43.7012	-15.6335	34.0521	91.3019	43.9500	139	-166	291	100818	0.42 
33.334	-1.2119	-0.1372	1.7017	15.2588	4.2725	-46.0205	-17.1442	34.1565	87.5171	43.9600	146	-150	291	100818	0.42 
33.506	-1.2358	-0.3965	1.8218	18.4326	-3.6621	-19.4702	-16.5289	34.4037	86.1603	43.9700	146	-141	293	100818	0.42 
33.553	-1.6753	-0.1289	2.2158	22.7051	33.9355	-31.8604	-15.6665	34.3323	84.0344	43.9800	144	-138	298	100818	0.42 
33.694	-1.3335	-0.1094	1.6084	6.1035	-17.8833	-36.9263	-16.4301	32.9810	80.9308	43.9700	141	-128	300	100818	0.42 
33.803	-1.6675	-0.1870	1.7197	8.6060	14.2822	-46.9971	-15.5676	33.1128	80.4254	43.9600	136	-121	293	100818	0.42 
33.913	-1.3828	-0.2363	1.6377	28.1982	-10.1929	-53.4668	-16.2103	31.5308	75.6464	43.9600	133	-108	294	100818	0.42 
33.960	-1.4756	0.0244	1.9082	43.1519	5.8594	-72.7539	-16.6937	30.6958	68.8239	43.9700	126	-95	290	100818	0.42 
34.131	-1.2700	-0.1836	1.6577	41.4429	5.1270	-93.5669	-16.4026	28.8391	62.1881	43.9700	115	-76	288	100818	0.42 
34.194	-1.3823	0.0752	1.8301	35.0952	10.5591	-67.8711	-16.3971	28.1689	54.8328	43.9700	101	-64	283	100818	0.42 
34.335	-1.2554	-0.1670	1.8892	39.1846	6.8359	-77.3926	-15.9741	27.4603	49.9768	43.9700	86	-49	281	100818	0.42 
34.397	-1.6299	-0.0396	2.2280	23.8037	19.4702	-102.9663	-17.4353	25.6915	41.0999	43.9700	71	-33	280	100818	0.42 
34.506	-1.4160	-0.3110	1.5757	33.6304	-15.6860	-53.0396	-16.2213	24.1754	39.4464	43.9700	52	-25	270	100818	0.42 
34.585	-1.5015	-0.0435	2.0557	21.4233	41.4429	-69.4580	-18.5120	22.7362	31.2067	43.9500	29	-19	261	100818	0.42 
34.725	-1.2900	-0.1636	1.6548	0.4883	-1.5869	-45.4102	-19.3030	22.8351	28.4161	43.9700	13	-10	261	100818	0.42 
34.803	-1.3369	-0.0908	1.8213	6.7139	36.8652	-55.4199	-20.3082	24.0765	25.6036	43.9500	4	-8	261	100818	0.42 
34.960	-1.2852	-0.1548	1.7041	7.0801	8.4229	-28.8086	-20.8795	25.6970	24.5929	43.9600	-2	-7	262	100818	0.42 
35.116	-1.4189	-0.3394	1.9619	2.3193	12.4512	-28.9307	-21.5277	27.3779	23.9832	43.9500	-8	-5	261	100818	0.42 
35.163	-1.9980	0.1372	2.7993	16.3574	31.3110	-9.9487	-23.1152	29.5917	21.8793	43.9600	-12	-3	263	100819	0.42 
35.194	-1.4810	-0.2939	1.3843	12.7563	7.1411	17.3340	-19.5337	31.6296	28.5425	43.9600	-9	-4	264	100819	0.42 
35.350	-1.5547	0.1138	1.9844	14.1602	-2.8076	6.2866	-17.6056	33.9148	31.0858	43.9500	-2	-10	262	100819	0.42 
35.413	-1.3218	-0.0571	1.4346	11.2915	-3.6011	6.3477	-15.3369	33.2501	36.1340	43.9400	-3	-12	261	100819	0.42 
35.538	-1.4658	-0.0415	1.7759	12.3901	7.8125	-7.2021	-13.5791	34.3927	39.2267	43.9200	1	-16	258	100818	0.42 
35.725	-1.3340	0.0303	1.8818	8.1787	-23.5596	2.5635	-11.9531	33.9807	42.1655	43.9200	-2	-20	257	100819	0.42 
35.803	-1.5303	0.0757	1.7524	1.8921	7.3853	-1.2817	-11.4862	32.3492	45.0604	43.9100	-10	-18	257	100819	0.42 
35.959	-1.5039	-0.2148	1.8218	-6.2866	-28.0151	-47.6074	-13.0133	31.3550	45.4395	43.9000	-15	-13	258	100819	0.42 
36.163	-1.3486	-0.1567	1.6035	-6.6528	9.8267	-35.0342	-15.8258	30.3937	42.6105	43.8900	-25	-9	261	100818	0.42 
36.209	-1.3271	-0.1162	1.5859	-3.8452	-36.4990	-30.8838	-17.2266	29.1302	41.9403	43.9000	-31	-5	263	100818	0.42 
36.209	-1.2681	-0.1963	1.5938	1.0376	13.7329	-24.2310	-18.3142	28.0756	41.3196	43.9000	-41	-4	262	100818	0.42 
36.350	-1.3330	-0.1177	1.8423	-5.5542	11.3525	-8.1177	-19.2920	29.2676	41.0120	43.8800	-48	-3	259	100818	0.42 
36.413	-1.3296	-0.1553	2.0444	7.8125	-16.6016	13.4888	-17.9791	29.9487	43.7860	43.8800	-48	-2	262	100817	0.42 
36.506	-1.7476	-0.1396	2.5161	7.0801	-4.8828	25.2686	-15.9741	31.0748	48.0157	43.9000	-45	-5	259	100817	0.42 
36.616	-1.4395	0.0098	1.3345	-1.5259	8.4229	42.4805	-12.2333	31.3934	54.4702	43.8700	-39	-8	262	100817	0.42 
36.756	-1.3862	0.0010	1.9097	6.1646	-1.1597	8.1787	-10.5524	34.2389	57.7826	43.8500	-28	-8	260	100817	0.42 
36.788	-1.3374	-0.0649	1.4858	-5.3711	12.4512	21.3013	-8.4045	34.7937	62.4188	43.8500	-21	-9	260	100817	0.42 
36.960	-1.3662	0.0996	1.7974	10.9253	4.4556	6.3477	-7.7399	36.6669	64.4238	43.8500	-15	-12	262	100816	0.42 
37.038	-1.3384	0.0703	1.8965	-6.8970	5.0659	16.7236	-6.5479	37.6776	67.6044	43.8300	-12	-16	265	100816	0.42 
37.116	-1.7822	0.1567	2.2832	6.1035	43.8843	1.9531	-6.1633	38.3588	69.6588	43.8300	-8	-15	269	100815	0.42 
37.194	-1.4253	-0.2461	1.5649	3.6011	-14.7705	-48.4619	-7.3169	37.6007	68.5547	43.8200	-10	-18	269	100815	0.42 
37.350	-1.4438	-0.0781	1.8872	1.5259	25.6958	-37.0483	-9.9152	38.5675	63.4021	43.8200	-18	-14	266	100815	0.43 
37.444	-1.2861	-0.0957	1.4473	-2.0752	-13.8550	-25.7568	-11.5906	36.9141	61.7102	43.8100	-25	-12	264	100814	0.43 
37.569	-1.4063	-0.1675	1.7471	-7.7515	5.8594	-23.4985	-13.5736	37.2491	60.4303	43.7900	-33	-8	265	100814	0.43 
37.616	-1.3076	-0.2642	1.8164	-9.0942	4.7607	-0.7324	-15.2161	36.8262	59.8975	43.8000	-34	-6	268	100813	0.43 
37.772	-1.4248	-0.1367	1.9473	14.9536	-21.7896	0.7935	-14.6118	36.4307	60.5566	43.8000	-34	-5	271	100813	0.43 
37.835	-1.6270	0.2349	1.7788	25.9399	-67.8711	47.6074	-10.6677	36.3318	64.1821	43.8000	-32	-8	267	100813	0.43 
37.960	-1.3652	-0.2065	1.6729	18.0054	38.1470	7.2021	-6.3721	35.5627	70.3839	43.7600	-27	-11	265	100813	0.43 
38.054	-1.3071	0.0327	1.3481	8.5449	-25.8179	14.9536	-4.6417	35.4584	71.8781	43.7600	-25	-14	261	100812	0.43 
38.225	-1.4346	0.0327	1.8096	10.2539	20.0195	13.3057	-2.7466	36.7383	74.9982	43.7800	-21	-18	260	100812	0.43 
38.257	-1.2661	0.1108	1.6470	16.5405	6.2256	-6.4697	-1.1096	37.2272	76.6901	43.7800	-15	-19	260	100812	0.43 
38.382	-1.3989	0.1816	1.9966	-2.5635	0.8545	6.7749	-0.4889	38.3313	78.2062	43.7700	-17	-24	262	100812	0.43 
38.460	-1.7715	-0.0430	2.0547	-14.7095	35.5835	-16.2964	-1.1151	39.3640	79.7552	43.7700	-10	-25	258	100811	0.43 
38.600	-1.3491	-0.0903	1.2031	-14.8315	-27.7100	-45.1660	-4.8724	37.8589	77.0801	43.7600	-13	-27	268	100811	0.43 
38.788	-1.4932	-0.1616	1.9248	-22.9492	12.6953	5.5542	-7.7399	39.6112	76.6351	43.7400	-18	-19	271	100811	0.43 
38.835	-1.3110	-0.1479	1.5005	-12.2070	-11.9019	-12.0239	-9.5142	38.4357	76.6901	43.7300	-15	-15	276	100811	0.43 
38.975	-1.3403	-0.1733	1.6475	-7.6294	0.1831	-26.4893	-12.2662	38.2324	74.1412	43.7200	-19	-16	278	100811	0.43 
39.069	-1.2148	-0.0845	1.8262	-4.1504	-1.2817	-0.5493	-13.3429	37.7765	73.6469	43.7200	-25	-12	280	100811	0.43 
39.194	-1.5894	-0.2163	1.9829	5.1270	3.8452	13.9771	-13.0792	38.3313	74.3829	43.7100	-23	-17	282	100810	0.43 
39.257	-1.4976	0.0195	1.6147	6.8359	-22.3389	72.7539	-8.2178	38.6774	79.9640	43.6900	-16	-15	281	100810	0.43 
39.444	-1.4458	-0.0488	1.7344	22.8882	28.0762	18.0664	-3.6859	39.5947	87.3083	43.6900	-10	-17	281	100810	0.43 
39.616	-1.3120	-0.0938	1.4541	7.8735	-19.8975	18.9209	-1.2634	39.1278	89.6429	43.6800	-2	-22	278	100810	0.43 
39.616	-1.4751	0.0713	1.7466	1.7090	19.8364	-1.6479	-0.2472	40.1715	90.5768	43.6600	0	-25	279	100809	0.43 
39.679	-1.3501	0.1079	1.6758	5.5542	0.8545	10.4370	0.9393	40.8252	92.0380	43.6700	2	-25	279	100809	0.43 
39.851	-1.4717	-0.0249	1.9585	3.6011	5.6152	7.3853	2.2137	41.1218	94.2407	43.6700	8	-26	279	100808	0.43 
40.085	-1.9028	-0.0024	2.4663	-3.7231	9.6436	-17.2729	1.2799	42.1710	92.9333	43.6800	5	-24	286	100808	0.43 
40.257	-1.5205	-0.1919	1.3936	-5.7373	2.3193	-53.1616	-3.0267	40.7648	88.5223	43.6900	1	-19	283	100807	0.43 
40.429	-1.4390	-0.0874	1.8911	-6.2256	-14.5874	-17.2119	-6.0754	40.6274	84.8859	43.6500	-3	-11	288	100807	0.43 
40.554	-1.2690	-0.1084	1.4272	-3.1738	-10.0098	-13.6108	-7.3059	38.2983	83.6279	43.6500	-13	-8	290	100807	0.43 
40.726	-1.3359	-0.1499	1.7256	-7.2021	-7.9956	-10.0708	-8.5199	38.0731	82.3260	43.6600	-15	-8	287	100806	0.43 
40.851	-1.3496	-0.1709	1.8799	-4.1504	-1.5869	-1.8921	-9.2010	37.4963	82.0184	43.6600	-16	-8	290	100806	0.43 
40.851	-1.5869	-0.3540	2.0439	0.0610	26.6724	6.1035	-9.2395	37.8094	81.8097	43.6700	-19	-3	293	100806	0.43 
40.851	-1.3423	0.0747	1.2944	10.7422	-20.3857	36.0107	-6.1469	37.6666	84.6277	43.6800	-15	-4	293	100805	0.43 
40.882	-1.4438	0.0112	1.9839	6.3477	8.9722	17.4561	-2.7081	40.1605	88.5553	43.6500	-10	-6	287	100805	0.43 
40.882	-1.3726	0.0234	1.3716	2.3193	5.9814	20.3247	-0.6702	39.3805	91.2305	43.6500	-4	-6	289	100804	0.43 
40.898	-1.4409	-0.0562	1.7832	-1.9531	3.4790	17.9443	0.6262	40.8911	93.3563	43.6600	1	-7	293	100804	0.43 
41.007	-1.4463	0.1221	1.8032	4.0283	12.5732	8.9722	1.6205	41.0944	94.3671	43.6300	6	-13	290	100804	0.43 
41.226	-1.5830	0.1089	2.0098	-1.7090	-10.9863	-8.8501	1.8951	41.0834	94.6857	43.6600	5	-9	289	100804	0.43 
41.288	-1.5146	-0.3921	1.6694	-8.6060	-41.8701	-51.3306	-1.4667	39.9902	90.9943	43.6600	2	-5	291	100803	0.43 
41.382	-1.4731	0.1382	1.7363	-9.5215	-5.3711	-31.3721	-5.7788	37.9303	84.5343	43.6500	-15	0	285	100804	0.43 
41.476	-1.3076	-0.2632	1.5059	-11.9019	-19.5923	0.9766	-7.8333	35.9637	83.3093	43.6500	-27	6	281	100803	0.43 
41.632	-1.3647	-0.1602	1.7559	-6.4697	-7.3853	-2.8687	-8.7122	35.5023	82.2272	43.6400	-28	15	283	100803	0.44 
41.694	-1.1899	-0.1411	1.7100	6.9580	-0.6714	-9.1553	-8.7506	33.4259	81.2878	43.6400	-32	17	288	100803	0.44 
41.835	-1.5059	-0.0444	2.1934	0.0000	-11.9629	20.2026	-7.9156	34.2444	81.3757	43.6500	-35	14	289	100802	0.44 
41.898	-1.5986	0.0972	1.8174	11.1084	-18.8599	27.9541	-5.7184	35.3156	83.9905	43.6400	-29	18	281	100802	0.44 
42.007	-1.4541	-0.1226	1.6987	6.2866	36.9873	38.3911	-2.8949	36.3208	87.5061	43.6400	-22	17	277	100802	0.44 
42.085	-1.2720	-0.0967	1.3921	7.7515	-3.1128	23.5596	-0.8954	36.4856	89.8627	43.6500	-15	18	274	100802	0.44 
42.226	-1.4297	0.0576	1.8403	1.3428	8.5449	6.2256	0.4449	38.0621	91.1041	43.6400	-11	19	275	100801	0.44 
42.304	-1.2344	0.0928	1.6895	-11.2305	-15.8691	9.1553	0.7471	36.9525	91.6919	43.6500	-10	17	278	100801	0.44 
42.429	-1.4077	-0.0747	2.1650	0.1221	-6.5918	7.3242	0.7526	36.8317	92.8015	43.6500	-5	15	276	100801	0.44 
42.523	-1.8135	-0.1567	2.4043	-16.0522	-24.9023	-13.8550	0.6976	38.1995	92.2467	43.6500	0	20	275	100801	0.44 
42.601	-1.3838	-0.2065	1.2026	6.3477	15.9302	-51.7578	-3.1091	36.4801	85.9845	43.6600	-9	25	275	100801	0.44 
42.679	-1.3691	-0.2041	1.8140	-8.5449	-39.1846	-28.6865	-6.4105	37.4469	80.8813	43.6500	-23	30	273	100800	0.44 
42.835	-1.2798	0.0020	1.4546	-15.0757	6.8359	-3.6011	-8.2123	35.7770	78.7280	43.6400	-34	38	274	100800	0.44 
43.054	-1.2964	-0.2798	1.7695	-4.0283	5.9204	4.4556	-8.9758	37.0844	78.3984	43.6400	-34	35	279	100800	0.44 
43.148	-1.3169	-0.2690	1.9502	1.2207	10.8032	-2.0752	-9.0088	38.0347	77.7063	43.6500	-34	37	277	100800	0.44 
43.273	-1.5454	-0.3340	1.9839	-0.7324	0.4272	14.0991	-8.2617	38.0457	77.6898	43.6600	-31	41	277	100799	0.44 
43.304	-1.3501	-0.0361	1.4106	14.1602	-15.5029	29.2358	-5.6854	37.2382	79.6509	43.6300	-26	39	274	100799	0.44 
43.335	-1.4868	-0.1113	1.9009	21.1182	10.8032	-8.1177	-2.7356	39.3256	82.2107	43.6300	-20	33	264	100799	0.44 
43.445	-1.3374	-0.1655	1.4385	13.6108	-4.7607	-4.8218	-1.1041	37.8479	81.0132	43.6400	-23	35	260	100798	0.44 
43.539	-1.4263	-0.0024	1.7656	11.9629	-2.1362	-5.6152	-0.2252	38.5400	79.9091	43.6400	-25	28	254	100798	0.44 
43.695	-1.3389	0.0815	1.6899	3.9063	19.8364	-2.3193	0.0989	38.9630	78.9752	43.6600	-28	28	244	100798	0.44 
43.851	-1.3438	0.0674	1.8481	-15.1978	4.6387	16.0522	0.3900	39.7046	80.5353	43.6600	-23	28	246	100798	0.44 
43.914	-1.4678	0.0347	1.9478	-9.0332	7.9956	43.5181	1.4722	39.4629	84.1663	43.6400	-19	30	250	100798	0.44 
44.038	-1.6392	0.0063	2.1621	-7.1411	3.9673	0.6714	1.8457	39.8969	86.1328	43.6600	-8	27	252	100797	0.44 
44.085	-1.4019	-0.3110	1.2373	-8.0566	-20.8740	-24.8413	-1.0822	38.6938	83.9026	43.6500	-7	31	247	100797	0.44 
44.257	-1.4624	-0.1509	1.7935	-8.4839	-25.0244	-30.9448	-3.5651	39.2377	80.8978	43.6400	-17	35	249	100797	0.44 
44.304	-1.2959	-0.1206	1.5742	-6.9580	8.9111	-29.7852	-6.4764	37.3260	76.7670	43.6300	-29	37	251	100797	0.44 
44.429	-1.3550	-0.1396	1.7402	-8.9111	4.2725	-17.2119	-9.4867	37.7216	72.5427	43.6400	-41	39	248	100797	0.44 
44.539	-1.3384	-0.2358	1.8511	-0.4272	14.7705	-4.3335	-10.4095	38.2489	70.7739	43.6400	-47	40	247	100797	0.44 
44.679	-1.5381	-0.1738	1.9219	8.8501	-6.5308	15.0146	-9.5746	38.5181	70.3455	43.6400	-46	43	246	100797	0.44 
44.742	-1.6680	-0.0610	2.3569	15.3198	-6.7749	-2.8076	-9.0198	38.4247	69.2633	43.6500	-48	37	240	100796	0.44 
44.835	-1.6104	-0.1953	1.4038	12.6343	-13.8550	-0.1831	-6.2238	37.4579	71.3727	43.6200	-48	32	238	100796	0.44 
44.914	-1.4150	0.0815	1.6602	14.7095	-5.0049	14.5264	-3.8177	36.7603	71.3617	43.6000	-50	28	230	100795	0.44 
45.054	-1.3472	-0.1538	1.6309	15.7471	3.9673	-1.9531	-2.0160	36.4307	71.9000	43.6200	-52	22	224	100795	0.44 
45.132	-1.4321	0.0190	1.7529	14.5874	5.2490	-12.7563	-1.5710	37.0679	70.9717	43.6100	-54	22	221	100795	0.44 
45.257	-1.4780	-0.0293	1.8662	14.4043	25.5737	-23.6816	-1.7688	38.5291	68.7469	43.6100	-58	19	219	100794	0.44 
45.335	-1.3467	0.1074	1.7173	4.0894	-15.5640	-7.9956	-0.6647	38.0072	68.8458	43.6100	-62	11	214	100795	0.44 
45.476	-1.4961	-0.1289	1.7456	-6.9580	-5.6152	-23.6816	-2.1039	37.5458	67.9065	43.6300	-65	13	210	100794	0.44 
45.554	-1.3462	-0.1030	1.5225	-4.9438	-17.7002	0.5493	-2.3895	37.1887	68.0219	43.6300	-68	14	211	100794	0.44 
45.710	-1.4751	-0.0044	1.9658	-4.8218	-8.6060	1.3428	-3.8782	37.0679	66.9177	43.6400	-75	15	209	100794	0.44 
45.773	-1.4277	-0.1416	1.7808	-6.5918	9.7656	-3.2349	-4.2792	36.6284	67.5330	43.6300	-75	19	215	100794	0.44 
45.914	-1.3267	-0.0586	1.7490	-2.3804	-10.2539	3.4180	-4.4220	36.2164	67.4780	43.6700	-75	14	215	100794	0.44 
45.976	-1.3716	-0.1328	1.8096	-0.4883	-3.9673	-7.5684	-4.3726	35.9747	67.7362	43.6500	-78	16	214	100794	0.44 
46.117	-1.3638	-0.0854	1.8018	-1.2817	-3.2349	-3.3569	-4.7900	35.8649	66.9891	43.6600	-78	17	214	100794	0.44 
46.304	-1.3555	-0.1099	1.7813	-1.4648	-2.1362	-4.1504	-5.1361	35.7385	66.3849	43.6800	-75	19	218	100794	0.44 
46.351	-1.3521	-0.1006	1.7920	-0.8545	0.1221	-0.6104	-5.2405	35.8099	66.2366	43.6800	-80	16	219	100794	0.44 
46.382	-1.3804	-0.1040	1.8188	-0.7324	2.1362	5.9814	-4.9164	36.2439	66.7035	43.6900	-77	16	220	100793	0.44 
46.523	-1.3594	-0.0801	1.7974	0.1831	0.7935	7.2021	-4.4659	36.3757	67.4066	43.7000	-78	15	218	100793	0.44 
46.585	-1.3594	-0.1025	1.7920	-0.3052	1.5259	4.0894	-3.8013	36.6669	68.4229	43.7000	-75	17	215	100793	0.44 
46.726	-1.3940	-0.0747	1.8130	0.0000	-2.1362	2.6245	-3.4827	36.7657	68.9008	43.7000	-72	18	219	100793	0.44 
46.867	-1.3594	-0.1011	1.8008	-1.1597	-3.8452	6.1646	-3.2520	36.5460	69.3896	43.7300	-73	16	216	100793	0.44 
46.945	-1.3428	-0.0840	1.7920	-1.0986	-3.6621	1.5869	-3.1146	36.1505	69.7412	43.7100	-73	13	214	100793	0.44 
47.117	-1.3584	-0.0967	1.7886	-0.1221	1.0986	2.9907	-3.1970	36.1725	69.6094	43.7300	-71	18	215	100793	0.44 
47.164	-1.3643	-0.0562	1.8066	-2.1362	-1.4038	-0.3662	-3.0212	36.3208	69.8016	43.7300	-72	18	217	100793	0.44 
47.336	-1.3594	-0.1040	1.8101	-3.9673	-1.0986	4.0283	-3.1750	36.2384	69.9445	43.7800	-71	20	218	100792	0.44 
47.367	-1.3677	-0.1045	1.8130	1.7700	0.9155	-6.5918	-3.3344	36.3428	69.5599	43.7500	-68	22	218	100792	0.44 
47.523	-1.3647	-0.0757	1.8140	1.7700	0.0610	-6.4697	-3.5815	36.3373	68.6261	43.7400	-72	19	216	100792	0.44 
47.570	-1.3809	-0.0967	1.7998	1.0986	1.7700	-5.3101	-3.7793	36.3702	67.9999	43.7600	-76	17	216	100793	0.44 
47.679	-1.3594	-0.0938	1.7935	1.1597	-0.7935	-5.6152	-3.9771	36.3043	67.2968	43.7700	-75	18	217	100792	0.44 
47.758	-1.3516	-0.0757	1.8018	1.7090	-4.0894	-5.0659	-4.0924	36.0626	66.5991	43.7600	-77	16	215	100792	0.44 
47.929	-1.3530	-0.0923	1.8125	0.9766	-4.3335	-3.2349	-4.1034	35.7330	66.4178	43.7700	-81	13	217	100792	0.44 
47.976	-1.3481	-0.0850	1.8193	-0.1831	-6.8970	0.7324	-4.0594	35.3265	66.3959	43.7900	-84	18	217	100792	0.44 
48.086	-1.3452	-0.0938	1.8350	-0.1831	-0.2441	0.0000	-3.9880	34.9860	66.3794	43.8100	-83	14	215	100792	0.44 
48.164	-1.3516	-0.0879	1.8159	-1.6479	0.0610	1.0376	-4.1309	34.8816	66.3409	43.8000	-83	14	217	100793	0.44 
48.304	-1.3145	-0.1069	1.8179	1.7700	-1.7700	-5.4321	-4.2133	34.8596	66.2201	43.8100	-86	12	217	100793	0.44 
48.383	-1.3530	-0.0718	1.8320	3.9673	-1.0376	2.5024	-3.8617	34.8981	66.1652	43.8300	-84	16	214	100793	0.44 
48.523	-1.3198	-0.0649	1.7998	1.4038	-2.8076	3.3569	-3.3563	34.6783	66.5717	43.8200	-86	14	217	100793	0.44 
48.601	-1.3223	-0.0742	1.8301	-0.2441	-0.5493	4.5776	-2.8949	34.8376	67.2253	43.8300	-86	15	212	100793	0.44 
48.758	-1.3398	-0.0630	1.8286	-0.7935	1.2817	5.0659	-2.6422	34.9530	67.6099	43.8200	-84	15	212	100793	0.44 
48.899	-1.3213	-0.0737	1.8110	-1.2817	1.7700	1.9531	-2.4500	35.1343	68.1262	43.8300	-83	17	216	100793	0.44 
48.946	-1.3428	-0.0737	1.8164	-1.6479	2.0752	1.5869	-2.5214	35.4474	68.2800	43.8400	-79	12	212	100794	0.44 
49.024	-1.3325	-0.0723	1.8027	-1.5259	0.6104	-0.1221	-2.6257	35.6122	68.3185	43.8600	-82	15	212	100794	0.44 
49.180	-1.3389	-0.0894	1.8037	0.1831	-1.0376	-5.6763	-2.8125	35.7935	67.9175	43.8700	-78	19	214	100794	0.44 
49.305	-1.3413	-0.0557	1.8208	0.2441	0.1831	-3.0518	-2.9773	35.8813	67.3901	43.8400	-82	15	214	100794	0.44 
49.555	-1.3403	-0.0854	1.8130	-1.0376	1.2817	-2.0142	-3.1750	35.9473	67.1924	43.8600	-82	15	214	100794	0.44 
49.711	-1.3560	-0.0898	1.8130	-1.8311	0.1831	0.4272	-3.2904	36.0956	67.2418	43.8900	-82	18	215	100794	0.44 
49.789	-1.3413	-0.0898	1.7939	-1.9531	0.9155	0.7935	-3.4277	36.1285	67.1924	43.8700	-82	13	215	100793	0.44 
49.789	-1.3438	-0.0928	1.8066	-1.5259	-0.5493	0.2441	-3.4882	36.2769	67.2968	43.8800	-80	15	214	100794	0.44 
49.789	-1.3481	-0.0850	1.8101	-0.7935	-0.3052	0.5493	-3.5156	36.2659	67.4231	43.9000	-77	12	212	100794	0.44 
49.946	-1.3516	-0.0811	1.8169	-1.4648	0.4272	1.2817	-3.4827	36.3318	67.6208	43.8900	-78	16	216	100794	0.44 
50.008	-1.3472	-0.0630	1.8125	-1.5869	3.0518	2.5024	-3.3728	36.4252	67.9999	43.8900	-77	18	218	100794	0.44 
50.133	-1.3496	-0.1025	1.7622	-1.3428	-2.1362	14.0381	-2.7191	36.3593	69.2633	43.8900	-78	17	215	100794	0.44 
50.196	-1.3608	-0.1289	1.7974	2.1973	-0.6714	-1.7700	-2.4005	36.4142	69.5819	43.9100	-73	16	219	100794	0.44 
50.336